wavelength, flux
   240, 6.871e-11
   260, 4.540e-10
   280, 6.935e-09
   300, 5.715e-09
   320, 1.069e-06
   340, 1.945e-06
   360, 2.427e-06
   380, 1.436e-06
   400, 2.254e-06
   420, 2.427e-06
   440, 2.838e-06
   460, 2.972e-06
   480, 3.083e-06
   500, 5.768e-06
   520, 1.285e-05
   540, 1.216e-05
   560, 1.384e-05
   580, 1.422e-05
   600, 1.489e-05
   620, 1.589e-05
   640, 1.664e-05
   660, 1.694e-05
   680, 1.726e-05
   700, 1.710e-05
   720, 1.807e-05
   740, 1.928e-05
   760, 1.910e-05
   780, 1.928e-05
   800, 1.982e-05
   820, 1.945e-05
   840, 1.858e-05
   860, 1.875e-05
   880, 1.963e-05
   900, 2.838e-05
   920, 4.457e-05
   940, 9.485e-05
   960, 9.573e-05
   980, 8.415e-05
  1000, 8.492e-05
  1020, 9.226e-05
  1040, 9.485e-05
  1060, 8.571e-05
  1080, 8.811e-05
  1100, 8.730e-05
  1120, 8.261e-05
  1140, 7.745e-05
  1160, 7.604e-05
  1180, 6.999e-05
  1200, 6.684e-05
  1220, 4.978e-05
  1240, 8.337e-05
  1260, 1.002e-04
  1280, 1.089e-04
  1300, 1.021e-04
  1320, 1.040e-04
  1340, 9.226e-05
  1360, 9.485e-05
  1380, 8.261e-05
  1400, 6.096e-05
  1420, 8.893e-05
  1440, 7.674e-05
  1460, 7.534e-05
  1480, 7.817e-05
  1500, 7.604e-05
  1520, 7.889e-05
  1540, 5.309e-05
  1560, 5.070e-05
  1580, 5.663e-05
  1600, 5.768e-05
  1620, 4.256e-05
  1640, 4.179e-05
  1660, 4.842e-05
  1680, 4.667e-05
  1700, 5.309e-05
  1720, 4.710e-05
  1740, 4.335e-05
  1760, 5.117e-05
  1780, 5.165e-05
  1800, 5.070e-05
  1820, 4.540e-05
  1840, 4.540e-05
  1860, 4.217e-05
  1880, 4.140e-05
  1900, 4.027e-05
  1920, 3.846e-05
  1940, 3.606e-05
  1960, 3.606e-05
  1980, 3.508e-05
  2000, 3.476e-05
  2020, 3.289e-05
  2040, 3.083e-05
  2060, 2.945e-05
  2080, 2.918e-05
  2100, 2.864e-05
  2120, 2.812e-05
  2140, 2.661e-05
  2160, 2.637e-05
  2180, 2.565e-05
  2200, 2.495e-05
  2220, 2.472e-05
  2240, 2.427e-05
  2260, 2.361e-05
  2280, 2.213e-05
  2300, 2.193e-05
  2320, 2.275e-05
  2340, 2.234e-05
  2360, 2.193e-05
  2380, 2.133e-05
  2400, 2.094e-05
  2420, 2.153e-05
  2440, 2.114e-05
  2460, 2.056e-05
  2480, 1.982e-05
  2500, 1.982e-05
  2520, 1.928e-05
  2540, 1.875e-05
  2560, 1.841e-05
  2580, 1.791e-05
  2600, 1.742e-05
  2620, 1.742e-05
  2640, 1.679e-05
  2660, 1.633e-05
  2680, 1.603e-05
  2700, 1.603e-05
  2720, 1.574e-05
  2740, 1.545e-05
  2760, 1.503e-05
  2780, 1.436e-05
  2800, 1.384e-05
  2820, 1.409e-05
  2840, 1.396e-05
  2860, 1.358e-05
  2880, 1.334e-05
  2900, 1.309e-05
  2920, 1.274e-05
  2940, 1.228e-05
  2960, 1.205e-05
  2980, 1.172e-05
  3000, 1.151e-05
  3020, 1.109e-05
  3040, 1.069e-05
  3060, 1.079e-05
  3080, 1.089e-05
  3100, 1.069e-05
  3120, 1.089e-05
  3140, 1.059e-05
  3160, 1.040e-05
  3180, 1.021e-05
  3200, 1.002e-05
  3220, 1.002e-05
  3240, 9.841e-06
  3260, 9.661e-06
  3280, 9.485e-06
  3300, 9.312e-06
  3320, 9.142e-06
  3340, 8.975e-06
  3360, 8.975e-06
  3380, 8.811e-06
  3400, 8.650e-06
  3420, 8.492e-06
  3440, 8.337e-06
  3460, 8.185e-06
  3480, 8.036e-06
  3500, 7.889e-06
  3520, 7.745e-06
  3540, 7.604e-06
  3560, 7.465e-06
  3580, 7.262e-06
  3600, 7.129e-06
  3650, 6.808e-06
  3700, 6.442e-06
  3750, 6.209e-06
  3800, 6.209e-06
  3850, 5.985e-06
  3900, 5.715e-06
  3950, 5.458e-06
  4000, 5.408e-06
  4050, 5.165e-06
  4100, 4.798e-06
  4150, 4.754e-06
  4200, 4.582e-06
  4250, 4.376e-06
  4300, 4.140e-06
  4350, 3.882e-06
  4400, 3.846e-06
  4450, 3.707e-06
  4500, 3.573e-06
  4550, 3.412e-06
  4600, 3.289e-06
  4650, 3.112e-06
  4700, 3.027e-06
  4750, 2.945e-06
  4800, 2.838e-06
  4850, 2.637e-06
  4900, 2.612e-06
  4950, 2.541e-06
  5000, 2.449e-06
  5050, 2.361e-06
  5100, 2.275e-06
  5150, 2.193e-06
  5200, 2.114e-06
  5250, 2.037e-06
  5300, 1.982e-06
  5350, 1.910e-06
  5400, 1.841e-06
  5450, 1.774e-06
  5500, 1.726e-06
  5550, 1.664e-06
  5600, 1.618e-06
  5650, 1.560e-06
  5700, 1.503e-06
  5750, 1.462e-06
  5800, 1.422e-06
  5850, 1.371e-06
  5900, 1.321e-06
  5950, 1.285e-06
  6000, 1.250e-06
  6050, 1.216e-06
  6100, 1.172e-06
  6150, 1.140e-06
  6200, 1.109e-06
  6250, 1.069e-06
  6300, 1.040e-06
  6350, 1.012e-06
  6400, 9.841e-07
  6450, 9.573e-07
  6500, 9.312e-07
  6550, 8.893e-07
  6600, 8.650e-07
  6650, 8.492e-07
  6700, 8.261e-07
  6750, 8.036e-07
  6800, 7.817e-07
  6850, 7.604e-07
  6900, 7.397e-07
  6950, 7.262e-07
  7000, 7.064e-07
  7050, 6.871e-07
  7100, 6.684e-07
  7150, 6.502e-07
  7200, 6.325e-07
  7250, 6.152e-07
  7300, 5.985e-07
  7350, 5.875e-07
  7400, 5.715e-07
  7450, 5.559e-07
  7500, 5.408e-07
  7550, 5.309e-07
  7600, 5.165e-07
  7650, 5.024e-07
  7700, 4.932e-07
  7750, 4.798e-07
  7800, 4.667e-07
  7850, 4.582e-07
  7900, 4.457e-07
  7950, 4.376e-07
  8000, 4.256e-07
  8050, 4.179e-07
  8100, 4.065e-07
  8150, 3.954e-07
  8200, 3.882e-07
  8250, 3.776e-07
  8300, 3.707e-07
  8350, 3.606e-07
  8400, 3.540e-07
  8450, 3.476e-07
  8500, 3.381e-07
  8550, 3.289e-07
  8600, 3.229e-07
  8650, 3.141e-07
  8700, 3.083e-07
  8750, 3.027e-07
  8800, 2.972e-07
  8850, 2.891e-07
  8900, 2.864e-07
  8950, 2.838e-07
  9000, 2.761e-07
  9050, 2.661e-07
  9100, 2.637e-07
  9150, 2.612e-07
  9200, 2.518e-07
  9250, 2.449e-07
  9300, 2.427e-07
  9350, 2.405e-07
  9400, 2.339e-07
  9450, 2.296e-07
  9500, 2.234e-07
  9550, 2.173e-07
  9600, 2.153e-07
  9650, 2.114e-07
  9700, 2.075e-07
  9750, 2.037e-07
  9800, 2.000e-07
  9850, 1.963e-07
  9900, 1.928e-07
  9950, 1.892e-07
 10000, 1.824e-07
 12500, 7.817e-08
 22000, 1.216e-08
 34000, 2.193e-09
