wavelength, flux
   240, 0.000e+00
   260, 0.000e+00
   280, 0.000e+00
   300, 0.000e+00
   320, 0.000e+00
   340, 0.000e+00
   360, 0.000e+00
   380, 0.000e+00
   400, 0.000e+00
   420, 0.000e+00
   440, 0.000e+00
   460, 0.000e+00
   480, 0.000e+00
   500, 0.000e+00
   520, 0.000e+00
   540, 0.000e+00
   560, 0.000e+00
   580, 0.000e+00
   600, 0.000e+00
   620, 0.000e+00
   640, 0.000e+00
   660, 0.000e+00
   680, 0.000e+00
   700, 0.000e+00
   720, 0.000e+00
   740, 0.000e+00
   760, 0.000e+00
   780, 0.000e+00
   800, 0.000e+00
   820, 0.000e+00
   840, 0.000e+00
   860, 0.000e+00
   880, 0.000e+00
   900, 0.000e+00
   920, 0.000e+00
   940, 0.000e+00
   960, 0.000e+00
   980, 0.000e+00
  1000, 0.000e+00
  1020, 0.000e+00
  1040, 0.000e+00
  1060, 0.000e+00
  1080, 0.000e+00
  1100, 0.000e+00
  1120, 1.413e-12
  1140, 1.910e-12
  1160, 2.969e-12
  1180, 3.939e-12
  1200, 5.773e-12
  1220, 8.415e-12
  1240, 5.611e-11
  1260, 1.346e-10
  1280, 2.018e-10
  1300, 2.541e-10
  1320, 3.199e-10
  1340, 4.102e-10
  1360, 4.978e-10
  1380, 6.209e-10
  1400, 7.817e-10
  1420, 9.485e-10
  1440, 1.216e-09
  1460, 1.633e-09
  1480, 1.928e-09
  1500, 2.405e-09
  1520, 3.606e-08
  1540, 5.408e-08
  1560, 3.259e-08
  1580, 7.534e-08
  1600, 8.337e-08
  1620, 7.129e-08
  1640, 4.978e-08
  1660, 3.707e-08
  1680, 2.382e-07
  1700, 3.083e-07
  1720, 3.170e-07
  1740, 3.991e-07
  1760, 4.335e-07
  1780, 4.457e-07
  1800, 3.412e-07
  1820, 2.472e-07
  1840, 3.918e-07
  1860, 4.540e-07
  1880, 4.798e-07
  1900, 4.978e-07
  1920, 5.715e-07
  1940, 4.416e-07
  1960, 4.978e-07
  1980, 4.710e-07
  2000, 4.416e-07
  2020, 4.027e-07
  2040, 3.707e-07
  2060, 2.999e-07
  2080, 2.495e-07
  2100, 2.637e-07
  2120, 2.891e-07
  2140, 2.735e-07
  2160, 2.339e-07
  2180, 2.173e-07
  2200, 2.173e-07
  2220, 2.339e-07
  2240, 2.037e-07
  2260, 2.000e-07
  2280, 1.982e-07
  2300, 2.339e-07
  2320, 2.382e-07
  2340, 2.449e-07
  2360, 2.094e-07
  2380, 2.495e-07
  2400, 2.518e-07
  2420, 2.541e-07
  2440, 2.518e-07
  2460, 2.999e-07
  2480, 3.381e-07
  2500, 3.476e-07
  2520, 2.891e-07
  2540, 2.541e-07
  2560, 2.449e-07
  2580, 2.710e-07
  2600, 3.027e-07
  2620, 3.112e-07
  2640, 3.846e-07
  2660, 4.540e-07
  2680, 4.256e-07
  2700, 3.991e-07
  2720, 3.741e-07
  2740, 4.256e-07
  2760, 3.639e-07
  2780, 3.606e-07
  2800, 3.289e-07
  2820, 4.667e-07
  2840, 5.212e-07
  2860, 4.842e-07
  2880, 4.457e-07
  2900, 5.261e-07
  2920, 5.821e-07
  2940, 5.261e-07
  2960, 5.261e-07
  2980, 5.611e-07
  3000, 6.871e-07
  3020, 7.262e-07
  3040, 6.684e-07
  3060, 7.064e-07
  3080, 7.262e-07
  3100, 7.195e-07
  3120, 6.746e-07
  3140, 7.129e-07
  3160, 7.329e-07
  3180, 7.534e-07
  3200, 8.185e-07
  3220, 8.110e-07
  3240, 7.817e-07
  3260, 8.036e-07
  3280, 8.261e-07
  3300, 9.312e-07
  3320, 9.841e-07
  3340, 9.142e-07
  3360, 9.226e-07
  3380, 9.142e-07
  3400, 9.661e-07
  3420, 1.059e-06
  3440, 1.079e-06
  3460, 1.050e-06
  3480, 1.021e-06
  3500, 1.002e-06
  3520, 1.069e-06
  3540, 1.109e-06
  3560, 1.216e-06
  3580, 1.120e-06
  3600, 1.194e-06
  3650, 1.285e-06
  3700, 1.710e-06
  3750, 2.449e-06
  3800, 3.381e-06
  3850, 3.673e-06
  3900, 3.508e-06
  3950, 2.812e-06
  4000, 4.065e-06
  4050, 4.140e-06
  4100, 3.540e-06
  4150, 3.954e-06
  4200, 3.882e-06
  4250, 3.846e-06
  4300, 3.540e-06
  4350, 3.289e-06
  4400, 3.573e-06
  4450, 3.573e-06
  4500, 3.639e-06
  4550, 3.540e-06
  4600, 3.540e-06
  4650, 3.508e-06
  4700, 3.508e-06
  4750, 3.444e-06
  4800, 3.381e-06
  4850, 2.812e-06
  4900, 3.170e-06
  4950, 3.199e-06
  5000, 3.027e-06
  5050, 3.055e-06
  5100, 2.972e-06
  5150, 2.864e-06
  5200, 2.786e-06
  5250, 2.710e-06
  5300, 2.710e-06
  5350, 2.686e-06
  5400, 2.637e-06
  5450, 2.637e-06
  5500, 2.588e-06
  5550, 2.541e-06
  5600, 2.472e-06
  5650, 2.449e-06
  5700, 2.382e-06
  5750, 2.361e-06
  5800, 2.339e-06
  5850, 2.296e-06
  5900, 2.213e-06
  5950, 2.193e-06
  6000, 2.114e-06
  6050, 2.094e-06
  6100, 2.075e-06
  6150, 1.963e-06
  6200, 2.019e-06
  6250, 1.982e-06
  6300, 1.928e-06
  6350, 1.892e-06
  6400, 1.858e-06
  6450, 1.824e-06
  6500, 1.791e-06
  6550, 1.603e-06
  6600, 1.710e-06
  6650, 1.710e-06
  6700, 1.679e-06
  6750, 1.648e-06
  6800, 1.618e-06
  6850, 1.603e-06
  6900, 1.574e-06
  6950, 1.545e-06
  7000, 1.517e-06
  7050, 1.489e-06
  7100, 1.462e-06
  7150, 1.449e-06
  7200, 1.422e-06
  7250, 1.396e-06
  7300, 1.371e-06
  7350, 1.358e-06
  7400, 1.334e-06
  7450, 1.309e-06
  7500, 1.297e-06
  7550, 1.274e-06
  7600, 1.250e-06
  7650, 1.228e-06
  7700, 1.216e-06
  7750, 1.172e-06
  7800, 1.162e-06
  7850, 1.162e-06
  7900, 1.140e-06
  7950, 1.130e-06
  8000, 1.109e-06
  8050, 1.089e-06
  8100, 1.069e-06
  8150, 1.059e-06
  8200, 1.040e-06
  8250, 1.030e-06
  8300, 1.030e-06
  8350, 1.021e-06
  8400, 1.021e-06
  8450, 1.002e-06
  8500, 1.012e-06
  8550, 9.312e-07
  8600, 1.002e-06
  8650, 9.142e-07
  8700, 1.030e-06
  8750, 9.485e-07
  8800, 1.002e-06
  8850, 9.226e-07
  8900, 9.751e-07
  8950, 9.661e-07
  9000, 8.730e-07
  9050, 9.398e-07
  9100, 9.226e-07
  9150, 9.142e-07
  9200, 8.975e-07
  9250, 8.110e-07
  9300, 8.730e-07
  9350, 8.571e-07
  9400, 8.492e-07
  9450, 8.337e-07
  9500, 8.261e-07
  9550, 7.397e-07
  9600, 8.036e-07
  9650, 7.889e-07
  9700, 7.745e-07
  9750, 7.674e-07
  9800, 7.534e-07
  9850, 7.465e-07
  9900, 7.329e-07
  9950, 7.262e-07
 10000, 7.129e-07
 12500, 3.639e-07
 22000, 5.117e-08
 34000, 1.120e-08
