wavelength, flux
   240, 0.000e+00
   260, 0.000e+00
   280, 0.000e+00
   300, 0.000e+00
   320, 0.000e+00
   340, 0.000e+00
   360, 0.000e+00
   380, 0.000e+00
   400, 0.000e+00
   420, 0.000e+00
   440, 0.000e+00
   460, 0.000e+00
   480, 0.000e+00
   500, 0.000e+00
   520, 0.000e+00
   540, 0.000e+00
   560, 0.000e+00
   580, 0.000e+00
   600, 0.000e+00
   620, 0.000e+00
   640, 0.000e+00
   660, 0.000e+00
   680, 0.000e+00
   700, 0.000e+00
   720, 0.000e+00
   740, 0.000e+00
   760, 0.000e+00
   780, 0.000e+00
   800, 0.000e+00
   820, 0.000e+00
   840, 0.000e+00
   860, 0.000e+00
   880, 0.000e+00
   900, 0.000e+00
   920, 0.000e+00
   940, 0.000e+00
   960, 0.000e+00
   980, 0.000e+00
  1000, 0.000e+00
  1020, 0.000e+00
  1040, 0.000e+00
  1060, 0.000e+00
  1080, 0.000e+00
  1100, 0.000e+00
  1120, 1.337e-14
  1140, 1.896e-14
  1160, 3.061e-14
  1180, 4.276e-14
  1200, 6.514e-14
  1220, 9.742e-14
  1240, 4.923e-13
  1260, 1.136e-12
  1280, 1.679e-12
  1300, 2.284e-12
  1320, 3.016e-12
  1340, 3.965e-12
  1360, 5.246e-12
  1380, 6.740e-12
  1400, 8.917e-12
  1420, 1.137e-11
  1440, 1.446e-11
  1460, 1.892e-11
  1480, 2.361e-11
  1500, 3.027e-11
  1520, 6.209e-11
  1540, 8.185e-11
  1560, 7.534e-11
  1580, 1.297e-10
  1600, 1.664e-10
  1620, 1.858e-10
  1640, 1.910e-10
  1660, 1.824e-10
  1680, 1.841e-09
  1700, 2.449e-09
  1720, 3.170e-09
  1740, 5.212e-09
  1760, 5.821e-09
  1780, 6.562e-09
  1800, 4.754e-09
  1820, 3.199e-09
  1840, 6.746e-09
  1860, 9.932e-09
  1880, 1.120e-08
  1900, 1.216e-08
  1920, 1.285e-08
  1940, 1.151e-08
  1960, 1.476e-08
  1980, 1.892e-08
  2000, 1.742e-08
  2020, 1.409e-08
  2040, 1.449e-08
  2060, 1.172e-08
  2080, 3.954e-08
  2100, 5.165e-08
  2120, 4.842e-08
  2140, 3.846e-08
  2160, 4.798e-08
  2180, 5.165e-08
  2200, 6.040e-08
  2220, 5.358e-08
  2240, 6.999e-08
  2260, 5.458e-08
  2280, 5.559e-08
  2300, 6.383e-08
  2320, 7.064e-08
  2340, 4.887e-08
  2360, 4.798e-08
  2380, 4.667e-08
  2400, 4.027e-08
  2420, 5.768e-08
  2440, 8.261e-08
  2460, 8.337e-08
  2480, 7.534e-08
  2500, 8.730e-08
  2520, 8.415e-08
  2540, 6.999e-08
  2560, 8.415e-08
  2580, 9.661e-08
  2600, 7.674e-08
  2620, 6.383e-08
  2640, 1.194e-07
  2660, 2.075e-07
  2680, 1.875e-07
  2700, 1.824e-07
  2720, 1.664e-07
  2740, 1.449e-07
  2760, 1.334e-07
  2780, 1.422e-07
  2800, 7.397e-08
  2820, 1.664e-07
  2840, 2.234e-07
  2860, 2.275e-07
  2880, 2.541e-07
  2900, 3.141e-07
  2920, 3.319e-07
  2940, 3.444e-07
  2960, 3.673e-07
  2980, 3.741e-07
  3000, 3.918e-07
  3020, 4.296e-07
  3040, 4.582e-07
  3060, 4.710e-07
  3080, 4.754e-07
  3100, 5.024e-07
  3120, 5.070e-07
  3140, 5.212e-07
  3160, 5.408e-07
  3180, 5.309e-07
  3200, 5.408e-07
  3220, 5.508e-07
  3240, 5.212e-07
  3260, 6.096e-07
  3280, 6.562e-07
  3300, 7.195e-07
  3320, 7.064e-07
  3340, 6.808e-07
  3360, 6.623e-07
  3380, 6.383e-07
  3400, 7.064e-07
  3420, 7.129e-07
  3440, 7.604e-07
  3460, 6.935e-07
  3480, 7.064e-07
  3500, 6.935e-07
  3520, 7.397e-07
  3540, 7.465e-07
  3560, 8.261e-07
  3580, 7.465e-07
  3600, 7.962e-07
  3650, 8.571e-07
  3700, 1.030e-06
  3750, 1.321e-06
  3800, 1.603e-06
  3850, 1.841e-06
  3900, 1.892e-06
  3950, 1.216e-06
  4000, 1.910e-06
  4050, 2.075e-06
  4100, 1.928e-06
  4150, 2.173e-06
  4200, 2.173e-06
  4250, 2.193e-06
  4300, 1.945e-06
  4350, 1.982e-06
  4400, 2.173e-06
  4450, 2.254e-06
  4500, 2.361e-06
  4550, 2.318e-06
  4600, 2.382e-06
  4650, 2.427e-06
  4700, 2.427e-06
  4750, 2.405e-06
  4800, 2.339e-06
  4850, 2.056e-06
  4900, 2.213e-06
  4950, 2.234e-06
  5000, 2.153e-06
  5050, 2.133e-06
  5100, 2.133e-06
  5150, 2.019e-06
  5200, 2.000e-06
  5250, 2.000e-06
  5300, 2.019e-06
  5350, 2.019e-06
  5400, 2.037e-06
  5450, 2.019e-06
  5500, 2.000e-06
  5550, 1.963e-06
  5600, 1.928e-06
  5650, 1.928e-06
  5700, 1.892e-06
  5750, 1.875e-06
  5800, 1.858e-06
  5850, 1.807e-06
  5900, 1.774e-06
  5950, 1.742e-06
  6000, 1.726e-06
  6050, 1.710e-06
  6100, 1.679e-06
  6150, 1.589e-06
  6200, 1.648e-06
  6250, 1.618e-06
  6300, 1.603e-06
  6350, 1.574e-06
  6400, 1.545e-06
  6450, 1.531e-06
  6500, 1.503e-06
  6550, 1.346e-06
  6600, 1.462e-06
  6650, 1.449e-06
  6700, 1.422e-06
  6750, 1.409e-06
  6800, 1.384e-06
  6850, 1.371e-06
  6900, 1.346e-06
  6950, 1.321e-06
  7000, 1.309e-06
  7050, 1.285e-06
  7100, 1.274e-06
  7150, 1.250e-06
  7200, 1.239e-06
  7250, 1.216e-06
  7300, 1.205e-06
  7350, 1.183e-06
  7400, 1.172e-06
  7450, 1.151e-06
  7500, 1.140e-06
  7550, 1.130e-06
  7600, 1.109e-06
  7650, 1.099e-06
  7700, 1.079e-06
  7750, 1.059e-06
  7800, 1.050e-06
  7850, 1.040e-06
  7900, 1.030e-06
  7950, 1.021e-06
  8000, 1.002e-06
  8050, 9.932e-07
  8100, 9.841e-07
  8150, 9.751e-07
  8200, 9.573e-07
  8250, 9.485e-07
  8300, 9.398e-07
  8350, 9.398e-07
  8400, 9.312e-07
  8450, 8.893e-07
  8500, 8.650e-07
  8550, 7.889e-07
  8600, 8.730e-07
  8650, 7.745e-07
  8700, 8.811e-07
  8750, 8.337e-07
  8800, 8.571e-07
  8850, 8.036e-07
  8900, 8.337e-07
  8950, 8.261e-07
  9000, 7.745e-07
  9050, 8.110e-07
  9100, 7.962e-07
  9150, 7.889e-07
  9200, 7.817e-07
  9250, 7.195e-07
  9300, 7.604e-07
  9350, 7.534e-07
  9400, 7.397e-07
  9450, 7.329e-07
  9500, 7.262e-07
  9550, 6.684e-07
  9600, 7.064e-07
  9650, 6.999e-07
  9700, 6.935e-07
  9750, 6.871e-07
  9800, 6.746e-07
  9850, 6.684e-07
  9900, 6.562e-07
  9950, 6.502e-07
 10000, 6.442e-07
 12500, 3.606e-07
 22000, 5.715e-08
 34000, 1.250e-08
