wavelength, flux
          229.,          0.
          234.,          0.
          243.,          0.
          252.,          0.
          256.,          0.
          260.,          0.
          266.,          0.
          275.,          0.
          283.,          0.
          293.,          0.
          301.,          0.
          309.,          0.
          325.,          0.
          342.,          0.
          351.,          0.
          356.,          0.
          365.,          0.
          375.,          0.
          384.,          0.
          400.,          0.
          415.,          0.
          425.,          0.
          445.,          0.
          472.,          0.
          494.,          0.
          506.,          0.
          516.,          0.
          540.,          0.
          564.,          0.
          587.,          0.
          612.,          0.
          640.,          0.
          671.,          0.
          705.,          0.
          736.,          0.
          770.,          0.
          810.,          0.
          850.,          0.
          890.,          0.
          920.,   1.030E-19
          940.,   3.115E-19
          962.,   6.246E-19
          987.,   1.326E-18
         1012.,   2.591E-18
         1037.,   4.707E-18
         1062.,   8.749E-18
         1087.,   1.557E-17
         1112.,   5.927E-16
         1120.,   7.418E-16
         1140.,   1.034E-15
         1160.,   1.606E-15
         1180.,   2.225E-15
         1200.,   3.019E-15
         1220.,   4.456E-15
         1240.,   9.179E-15
         1260.,   1.570E-14
         1280.,   2.122E-14
         1300.,   2.842E-14
         1320.,   3.678E-14
         1340.,   4.652E-14
         1360.,   5.887E-14
         1380.,   7.499E-14
         1400.,   9.639E-14
         1420.,   1.212E-13
         1440.,   1.517E-13
         1460.,   1.922E-13
         1480.,   2.367E-13
         1500.,   2.982E-13
         1520.,   9.481E-13
         1540.,   1.493E-12
         1560.,   1.491E-12
         1580.,   1.963E-12
         1600.,   2.471E-12
         1620.,   2.904E-12
         1640.,   3.229E-12
         1660.,   3.390E-12
         1680.,   8.123E-11
         1700.,   1.212E-10
         1720.,   1.474E-10
         1740.,   1.949E-10
         1760.,   1.864E-10
         1780.,   2.467E-10
         1800.,   2.109E-10
         1820.,   1.481E-10
         1840.,   1.723E-10
         1860.,   2.463E-10
         1880.,   2.767E-10
         1900.,   3.101E-10
         1920.,   3.554E-10
         1940.,   2.907E-10
         1960.,   3.047E-10
         1980.,   4.198E-10
         2000.,   4.144E-10
         2002.,   4.073E-10
         2005.,   4.003E-10
         2008.,   3.932E-10
         2010.,   3.861E-10
         2012.,   3.790E-10
         2015.,   3.720E-10
         2018.,   3.649E-10
         2020.,   3.578E-10
         2022.,   3.620E-10
         2025.,   3.662E-10
         2027.,   3.704E-10
         2030.,   3.747E-10
         2032.,   3.789E-10
         2035.,   3.830E-10
         2038.,   3.873E-10
         2040.,   3.915E-10
         2042.,   3.873E-10
         2045.,   3.831E-10
         2048.,   3.790E-10
         2050.,   3.748E-10
         2052.,   3.706E-10
         2055.,   3.664E-10
         2058.,   3.623E-10
         2060.,   3.581E-10
         2062.,   3.666E-10
         2065.,   3.751E-10
         2067.,   3.836E-10
         2070.,   3.921E-10
         2072.,   4.005E-10
         2075.,   4.090E-10
         2077.,   4.175E-10
         2080.,   4.260E-10
         2082.,   4.270E-10
         2085.,   4.280E-10
         2088.,   4.290E-10
         2090.,   4.300E-10
         2092.,   4.310E-10
         2095.,   4.319E-10
         2098.,   4.329E-10
         2100.,   4.339E-10
         2102.,   4.368E-10
         2105.,   4.397E-10
         2107.,   4.426E-10
         2110.,   4.455E-10
         2112.,   4.484E-10
         2115.,   4.513E-10
         2118.,   4.542E-10
         2120.,   4.572E-10
         2122.,   4.598E-10
         2125.,   4.624E-10
         2128.,   4.651E-10
         2130.,   4.677E-10
         2133.,   4.704E-10
         2135.,   4.730E-10
         2138.,   4.757E-10
         2140.,   4.783E-10
         2142.,   4.789E-10
         2145.,   4.795E-10
         2147.,   4.802E-10
         2150.,   4.808E-10
         2153.,   4.814E-10
         2155.,   4.820E-10
         2157.,   4.826E-10
         2160.,   4.833E-10
         2162.,   4.882E-10
         2165.,   4.931E-10
         2168.,   4.981E-10
         2170.,   5.030E-10
         2173.,   5.079E-10
         2175.,   5.129E-10
         2177.,   5.178E-10
         2180.,   5.227E-10
         2182.,   5.335E-10
         2185.,   5.443E-10
         2187.,   5.551E-10
         2190.,   5.659E-10
         2193.,   5.767E-10
         2195.,   5.875E-10
         2198.,   5.982E-10
         2200.,   6.090E-10
         2202.,   6.070E-10
         2205.,   6.051E-10
         2208.,   6.031E-10
         2210.,   6.012E-10
         2213.,   5.992E-10
         2215.,   5.972E-10
         2218.,   5.953E-10
         2220.,   5.933E-10
         2222.,   5.936E-10
         2225.,   5.939E-10
         2227.,   5.942E-10
         2230.,   5.945E-10
         2233.,   5.948E-10
         2235.,   5.951E-10
         2237.,   5.954E-10
         2240.,   5.957E-10
         2242.,   5.993E-10
         2245.,   6.029E-10
         2248.,   6.065E-10
         2250.,   6.101E-10
         2253.,   6.136E-10
         2255.,   6.172E-10
         2257.,   6.209E-10
         2260.,   6.244E-10
         2262.,   6.137E-10
         2265.,   6.029E-10
         2267.,   5.922E-10
         2270.,   5.814E-10
         2273.,   5.707E-10
         2275.,   5.599E-10
         2277.,   5.492E-10
         2280.,   5.384E-10
         2282.,   5.469E-10
         2285.,   5.554E-10
         2288.,   5.638E-10
         2290.,   5.723E-10
         2293.,   5.807E-10
         2295.,   5.892E-10
         2298.,   5.977E-10
         2300.,   6.061E-10
         2302.,   6.042E-10
         2305.,   6.023E-10
         2307.,   6.004E-10
         2310.,   5.984E-10
         2313.,   5.965E-10
         2315.,   5.946E-10
         2317.,   5.926E-10
         2320.,   5.907E-10
         2322.,   5.812E-10
         2325.,   5.718E-10
         2327.,   5.623E-10
         2330.,   5.528E-10
         2333.,   5.433E-10
         2335.,   5.339E-10
         2337.,   5.244E-10
         2340.,   5.149E-10
         2342.,   5.044E-10
         2345.,   4.939E-10
         2347.,   4.834E-10
         2350.,   4.729E-10
         2353.,   4.625E-10
         2355.,   4.520E-10
         2357.,   4.415E-10
         2360.,   4.310E-10
         2362.,   4.284E-10
         2365.,   4.258E-10
         2368.,   4.232E-10
         2370.,   4.206E-10
         2373.,   4.179E-10
         2375.,   4.153E-10
         2377.,   4.127E-10
         2380.,   4.101E-10
         2383.,   3.967E-10
         2385.,   3.833E-10
         2387.,   3.699E-10
         2390.,   3.565E-10
         2393.,   3.431E-10
         2395.,   3.297E-10
         2397.,   3.163E-10
         2400.,   3.029E-10
         2403.,   3.196E-10
         2405.,   3.363E-10
         2407.,   3.529E-10
         2410.,   3.696E-10
         2413.,   3.863E-10
         2415.,   4.029E-10
         2417.,   4.196E-10
         2420.,   4.362E-10
         2423.,   4.542E-10
         2425.,   4.722E-10
         2427.,   4.902E-10
         2430.,   5.081E-10
         2433.,   5.261E-10
         2435.,   5.440E-10
         2437.,   5.620E-10
         2440.,   5.800E-10
         2443.,   5.794E-10
         2445.,   5.787E-10
         2448.,   5.781E-10
         2450.,   5.775E-10
         2452.,   5.769E-10
         2455.,   5.763E-10
         2457.,   5.756E-10
         2460.,   5.750E-10
         2463.,   5.733E-10
         2465.,   5.717E-10
         2467.,   5.700E-10
         2470.,   5.684E-10
         2473.,   5.667E-10
         2475.,   5.650E-10
         2477.,   5.634E-10
         2480.,   5.617E-10
         2483.,   5.594E-10
         2485.,   5.571E-10
         2487.,   5.548E-10
         2490.,   5.525E-10
         2493.,   5.503E-10
         2495.,   5.480E-10
         2497.,   5.457E-10
         2500.,   5.434E-10
         2502.,   5.303E-10
         2505.,   5.173E-10
         2507.,   5.042E-10
         2510.,   4.911E-10
         2513.,   4.781E-10
         2515.,   4.650E-10
         2518.,   4.519E-10
         2520.,   4.389E-10
         2522.,   4.291E-10
         2525.,   4.192E-10
         2527.,   4.094E-10
         2530.,   3.996E-10
         2532.,   3.898E-10
         2535.,   3.801E-10
         2538.,   3.703E-10
         2540.,   3.604E-10
         2542.,   3.846E-10
         2545.,   4.088E-10
         2548.,   4.330E-10
         2550.,   4.572E-10
         2552.,   4.813E-10
         2555.,   5.055E-10
         2558.,   5.297E-10
         2560.,   5.538E-10
         2562.,   5.794E-10
         2565.,   6.049E-10
         2567.,   6.304E-10
         2570.,   6.559E-10
         2573.,   6.814E-10
         2575.,   7.070E-10
         2577.,   7.325E-10
         2580.,   7.580E-10
         2582.,   7.511E-10
         2585.,   7.442E-10
         2587.,   7.373E-10
         2590.,   7.304E-10
         2593.,   7.235E-10
         2595.,   7.166E-10
         2598.,   7.097E-10
         2600.,   7.028E-10
         2602.,   6.895E-10
         2605.,   6.760E-10
         2607.,   6.627E-10
         2610.,   6.493E-10
         2612.,   6.359E-10
         2615.,   6.225E-10
         2618.,   6.091E-10
         2620.,   5.957E-10
         2622.,   6.417E-10
         2625.,   6.878E-10
         2627.,   7.339E-10
         2630.,   7.799E-10
         2633.,   8.260E-10
         2635.,   8.721E-10
         2638.,   9.182E-10
         2640.,   9.642E-10
         2642.,    1.020E-9
         2645.,    1.076E-9
         2647.,    1.132E-9
         2650.,    1.188E-9
         2652.,    1.244E-9
         2655.,    1.300E-9
         2657.,    1.356E-9
         2660.,    1.411E-9
         2662.,    1.394E-9
         2665.,    1.377E-9
         2667.,    1.360E-9
         2670.,    1.343E-9
         2673.,    1.327E-9
         2675.,    1.310E-9
         2677.,    1.293E-9
         2680.,    1.276E-9
         2682.,    1.277E-9
         2685.,    1.279E-9
         2687.,    1.281E-9
         2690.,    1.283E-9
         2692.,    1.285E-9
         2695.,    1.287E-9
         2698.,    1.289E-9
         2700.,    1.291E-9
         2702.,    1.285E-9
         2705.,    1.279E-9
         2707.,    1.273E-9
         2710.,    1.266E-9
         2713.,    1.260E-9
         2715.,    1.254E-9
         2718.,    1.248E-9
         2720.,    1.242E-9
         2722.,    1.206E-9
         2725.,    1.170E-9
         2727.,    1.135E-9
         2730.,    1.099E-9
         2732.,    1.063E-9
         2735.,    1.028E-9
         2737.,   9.923E-10
         2740.,   9.567E-10
         2742.,   9.504E-10
         2745.,   9.442E-10
         2747.,   9.380E-10
         2750.,   9.318E-10
         2753.,   9.256E-10
         2755.,   9.194E-10
         2758.,   9.132E-10
         2760.,   9.070E-10
         2762.,   9.308E-10
         2765.,   9.547E-10
         2767.,   9.785E-10
         2770.,    1.002E-9
         2772.,    1.026E-9
         2775.,    1.050E-9
         2778.,    1.074E-9
         2780.,    1.098E-9
         2782.,    1.009E-9
         2785.,   9.207E-10
         2787.,   8.322E-10
         2790.,   7.436E-10
         2793.,   6.551E-10
         2795.,   5.665E-10
         2798.,   4.780E-10
         2800.,   3.895E-10
         2802.,   4.740E-10
         2805.,   5.586E-10
         2807.,   6.432E-10
         2810.,   7.278E-10
         2812.,   8.124E-10
         2815.,   8.970E-10
         2817.,   9.816E-10
         2820.,    1.066E-9
         2823.,    1.102E-9
         2825.,    1.137E-9
         2827.,    1.173E-9
         2830.,    1.209E-9
         2833.,    1.244E-9
         2835.,    1.280E-9
         2838.,    1.315E-9
         2840.,    1.351E-9
         2842.,    1.339E-9
         2845.,    1.326E-9
         2847.,    1.314E-9
         2850.,    1.302E-9
         2852.,    1.289E-9
         2855.,    1.277E-9
         2858.,    1.264E-9
         2860.,    1.252E-9
         2862.,    1.268E-9
         2865.,    1.284E-9
         2867.,    1.300E-9
         2870.,    1.316E-9
         2873.,    1.332E-9
         2875.,    1.348E-9
         2878.,    1.364E-9
         2880.,    1.380E-9
         2883.,    1.432E-9
         2885.,    1.484E-9
         2887.,    1.536E-9
         2890.,    1.588E-9
         2892.,    1.640E-9
         2895.,    1.692E-9
         2898.,    1.743E-9
         2900.,    1.795E-9
         2903.,    1.794E-9
         2905.,    1.793E-9
         2907.,    1.792E-9
         2910.,    1.791E-9
         2913.,    1.791E-9
         2915.,    1.790E-9
         2918.,    1.789E-9
         2920.,    1.788E-9
         2923.,    1.786E-9
         2925.,    1.784E-9
         2927.,    1.783E-9
         2930.,    1.781E-9
         2932.,    1.780E-9
         2935.,    1.778E-9
         2938.,    1.776E-9
         2940.,    1.775E-9
         2942.,    1.768E-9
         2945.,    1.762E-9
         2948.,    1.755E-9
         2950.,    1.748E-9
         2952.,    1.742E-9
         2955.,    1.735E-9
         2958.,    1.729E-9
         2960.,    1.722E-9
         2963.,    1.727E-9
         2965.,    1.731E-9
         2967.,    1.736E-9
         2970.,    1.740E-9
         2972.,    1.745E-9
         2975.,    1.750E-9
         2978.,    1.754E-9
         2980.,    1.759E-9
         2983.,    1.765E-9
         2985.,    1.771E-9
         2987.,    1.777E-9
         2990.,    1.782E-9
         2993.,    1.788E-9
         2995.,    1.794E-9
         2998.,    1.800E-9
         3000.,    1.806E-9
         3003.,    1.809E-9
         3005.,    1.811E-9
         3007.,    1.814E-9
         3010.,    1.816E-9
         3012.,    1.819E-9
         3015.,    1.822E-9
         3018.,    1.824E-9
         3020.,    1.827E-9
         3023.,    1.846E-9
         3025.,    1.866E-9
         3027.,    1.886E-9
         3030.,    1.905E-9
         3032.,    1.925E-9
         3035.,    1.945E-9
         3038.,    1.964E-9
         3040.,    1.984E-9
         3043.,    1.981E-9
         3045.,    1.979E-9
         3048.,    1.976E-9
         3050.,    1.973E-9
         3052.,    1.971E-9
         3055.,    1.968E-9
         3058.,    1.965E-9
         3060.,    1.963E-9
         3063.,    1.966E-9
         3065.,    1.969E-9
         3067.,    1.972E-9
         3070.,    1.975E-9
         3073.,    1.978E-9
         3075.,    1.981E-9
         3077.,    1.983E-9
         3080.,    1.986E-9
         3083.,    1.989E-9
         3085.,    1.991E-9
         3087.,    1.993E-9
         3090.,    1.995E-9
         3092.,    1.998E-9
         3095.,    2.000E-9
         3098.,    2.002E-9
         3100.,    2.005E-9
         3103.,    2.013E-9
         3105.,    2.022E-9
         3107.,    2.030E-9
         3110.,    2.038E-9
         3112.,    2.047E-9
         3115.,    2.055E-9
         3118.,    2.064E-9
         3120.,    2.072E-9
         3123.,    2.074E-9
         3125.,    2.076E-9
         3127.,    2.077E-9
         3130.,    2.079E-9
         3132.,    2.081E-9
         3135.,    2.082E-9
         3138.,    2.084E-9
         3140.,    2.086E-9
         3143.,    2.091E-9
         3145.,    2.096E-9
         3147.,    2.101E-9
         3150.,    2.105E-9
         3152.,    2.110E-9
         3155.,    2.115E-9
         3157.,    2.120E-9
         3160.,    2.125E-9
         3163.,    2.116E-9
         3165.,    2.107E-9
         3167.,    2.099E-9
         3170.,    2.090E-9
         3173.,    2.081E-9
         3175.,    2.072E-9
         3177.,    2.063E-9
         3180.,    2.054E-9
         3183.,    2.074E-9
         3185.,    2.093E-9
         3187.,    2.112E-9
         3190.,    2.131E-9
         3192.,    2.151E-9
         3195.,    2.170E-9
         3198.,    2.189E-9
         3200.,    2.208E-9
         3202.,    2.206E-9
         3205.,    2.204E-9
         3208.,    2.202E-9
         3210.,    2.199E-9
         3212.,    2.197E-9
         3215.,    2.195E-9
         3217.,    2.193E-9
         3220.,    2.190E-9
         3223.,    2.195E-9
         3225.,    2.199E-9
         3227.,    2.204E-9
         3230.,    2.209E-9
         3233.,    2.213E-9
         3235.,    2.218E-9
         3237.,    2.222E-9
         3240.,    2.227E-9
         3260.,    2.583E-9
         3270.,    2.348E-9
         3280.,    2.491E-9
         3290.,    2.617E-9
         3300.,    2.546E-9
         3310.,    2.523E-9
         3320.,    2.513E-9
         3330.,    2.473E-9
         3340.,    2.477E-9
         3350.,    2.398E-9
         3360.,    2.342E-9
         3370.,    2.376E-9
         3380.,    2.486E-9
         3390.,    2.567E-9
         3400.,    2.528E-9
         3410.,    2.523E-9
         3420.,    2.507E-9
         3430.,    2.407E-9
         3440.,    2.441E-9
         3450.,    2.540E-9
         3460.,    2.535E-9
         3470.,    2.495E-9
         3480.,    2.498E-9
         3490.,    2.569E-9
         3500.,    2.627E-9
         3510.,    2.599E-9
         3520.,    2.638E-9
         3530.,    2.793E-9
         3540.,    2.867E-9
         3550.,    2.712E-9
         3560.,    2.485E-9
         3570.,    2.401E-9
         3580.,    2.496E-9
         3590.,    2.652E-9
         3600.,    2.610E-9
         3610.,    2.544E-9
         3620.,    2.632E-9
         3630.,    2.671E-9
         3640.,    2.727E-9
         3650.,    2.890E-9
         3660.,    2.931E-9
         3670.,    2.863E-9
         3680.,    2.870E-9
         3690.,    2.903E-9
         3700.,    2.797E-9
         3710.,    2.704E-9
         3720.,    2.635E-9
         3730.,    2.524E-9
         3740.,    2.569E-9
         3750.,    2.766E-9
         3760.,    2.972E-9
         3770.,    3.150E-9
         3780.,    3.078E-9
         3790.,    3.012E-9
         3800.,    3.126E-9
         3810.,    2.820E-9
         3820.,    2.382E-9
         3830.,    2.512E-9
         3840.,    2.945E-9
         3850.,    3.171E-9
         3860.,    3.137E-9
         3870.,    2.966E-9
         3880.,    2.857E-9
         3890.,    3.102E-9
         3900.,    3.310E-9
         3910.,    2.969E-9
         3920.,    2.406E-9
         3930.,    2.568E-9
         3940.,    3.104E-9
         3950.,    2.923E-9
         3960.,    2.596E-9
         3970.,    3.253E-9
         3980.,    3.899E-9
         3990.,    4.005E-9
         4000.,    4.112E-9
         4010.,    4.177E-9
         4020.,    4.153E-9
         4030.,    4.132E-9
         4040.,    4.091E-9
         4050.,    4.137E-9
         4060.,    4.250E-9
         4070.,    4.396E-9
         4080.,    4.272E-9
         4090.,    3.979E-9
         4100.,    4.071E-9
         4110.,    4.222E-9
         4120.,    4.208E-9
         4130.,    4.268E-9
         4140.,    4.325E-9
         4150.,    4.316E-9
         4160.,    4.233E-9
         4170.,    4.176E-9
         4180.,    4.178E-9
         4190.,    4.181E-9
         4200.,    4.222E-9
         4210.,    4.195E-9
         4220.,    4.116E-9
         4230.,    4.105E-9
         4240.,    4.091E-9
         4250.,    4.040E-9
         4260.,    3.995E-9
         4270.,    3.947E-9
         4280.,    3.718E-9
         4290.,    3.341E-9
         4300.,    3.482E-9
         4310.,    3.949E-9
         4320.,    3.959E-9
         4330.,    3.688E-9
         4340.,    3.823E-9
         4350.,    4.099E-9
         4360.,    4.050E-9
         4370.,    3.941E-9
         4380.,    3.915E-9
         4390.,    3.968E-9
         4400.,    4.113E-9
         4410.,    4.211E-9
         4420.,    4.207E-9
         4430.,    4.229E-9
         4440.,    4.201E-9
         4450.,    4.178E-9
         4460.,    4.274E-9
         4470.,    4.311E-9
         4480.,    4.341E-9
         4490.,    4.443E-9
         4500.,    4.477E-9
         4510.,    4.320E-9
         4520.,    4.190E-9
         4530.,    4.225E-9
         4540.,    4.276E-9
         4550.,    4.376E-9
         4560.,    4.413E-9
         4570.,    4.330E-9
         4580.,    4.308E-9
         4590.,    4.340E-9
         4600.,    4.377E-9
         4610.,    4.392E-9
         4620.,    4.395E-9
         4630.,    4.356E-9
         4640.,    4.332E-9
         4650.,    4.315E-9
         4660.,    4.264E-9
         4670.,    4.300E-9
         4680.,    4.315E-9
         4690.,    4.261E-9
         4700.,    4.279E-9
         4710.,    4.369E-9
         4720.,    4.384E-9
         4730.,    4.370E-9
         4740.,    4.365E-9
         4750.,    4.354E-9
         4760.,    4.375E-9
         4770.,    4.396E-9
         4780.,    4.404E-9
         4790.,    4.414E-9
         4800.,    4.454E-9
         4810.,    4.473E-9
         4820.,    4.441E-9
         4830.,    4.418E-9
         4840.,    4.135E-9
         4850.,    3.749E-9
         4860.,    3.820E-9
         4870.,    4.035E-9
         4880.,    4.105E-9
         4890.,    4.168E-9
         4900.,    4.119E-9
         4910.,    4.039E-9
         4920.,    4.074E-9
         4930.,    4.136E-9
         4940.,    4.142E-9
         4950.,    4.113E-9
         4960.,    4.077E-9
         4970.,    4.050E-9
         4980.,    4.035E-9
         4990.,    4.023E-9
         5000.,    3.961E-9
         5010.,    3.989E-9
         5020.,    4.033E-9
         5030.,    4.002E-9
         5040.,    3.991E-9
         5050.,    3.952E-9
         5060.,    3.862E-9
         5070.,    3.869E-9
         5080.,    3.941E-9
         5090.,    3.876E-9
         5100.,    3.843E-9
         5110.,    3.833E-9
         5120.,    3.760E-9
         5130.,    3.725E-9
         5140.,    3.762E-9
         5150.,    3.676E-9
         5160.,    3.502E-9
         5170.,    3.531E-9
         5180.,    3.647E-9
         5190.,    3.716E-9
         5200.,    3.768E-9
         5210.,    3.761E-9
         5220.,    3.723E-9
         5230.,    3.771E-9
         5240.,    3.792E-9
         5250.,    3.672E-9
         5260.,    3.608E-9
         5270.,    3.708E-9
         5280.,    3.817E-9
         5290.,    3.824E-9
         5300.,    3.794E-9
         5310.,    3.737E-9
         5320.,    3.686E-9
         5330.,    3.721E-9
         5340.,    3.772E-9
         5350.,    3.762E-9
         5360.,    3.730E-9
         5370.,    3.741E-9
         5380.,    3.746E-9
         5390.,    3.704E-9
         5400.,    3.673E-9
         5410.,    3.722E-9
         5420.,    3.777E-9
         5430.,    3.800E-9
         5440.,    3.797E-9
         5450.,    3.787E-9
         5460.,    3.762E-9
         5470.,    3.730E-9
         5480.,    3.739E-9
         5490.,    3.728E-9
         5500.,    3.719E-9
         5510.,    3.731E-9
         5520.,    3.713E-9
         5530.,    3.700E-9
         5540.,    3.712E-9
         5550.,    3.702E-9
         5560.,    3.674E-9
         5570.,    3.658E-9
         5580.,    3.645E-9
         5590.,    3.649E-9
         5600.,    3.689E-9
         5610.,    3.595E-9
         5620.,    3.677E-9
         5630.,    3.556E-9
         5640.,    3.675E-9
         5650.,    3.489E-9
         5660.,    3.639E-9
         5670.,    3.502E-9
         5680.,    3.651E-9
         5690.,    3.492E-9
         5700.,    3.588E-9
         5710.,    3.545E-9
         5720.,    3.663E-9
         5730.,    3.513E-9
         5740.,    3.504E-9
         5760.,    3.510E-9
         5780.,    3.516E-9
         5800.,    3.498E-9
         5820.,    3.497E-9
         5840.,    3.469E-9
         5860.,    3.379E-9
         5880.,    3.330E-9
         5900.,    3.371E-9
         5920.,    3.392E-9
         5940.,    3.366E-9
         5960.,    3.356E-9
         5980.,    3.343E-9
         6000.,    3.324E-9
         6020.,    3.329E-9
         6040.,    3.334E-9
         6060.,    3.339E-9
         6080.,    3.365E-9
         6100.,    3.346E-9
         6120.,    3.259E-9
         6140.,    3.203E-9
         6160.,    3.191E-9
         6180.,    3.202E-9
         6200.,    3.219E-9
         6220.,    3.190E-9
         6240.,    3.149E-9
         6260.,    3.143E-9
         6280.,    3.157E-9
         6300.,    3.151E-9
         6320.,    3.155E-9
         6340.,    3.180E-9
         6360.,    3.165E-9
         6380.,    3.151E-9
         6400.,    3.139E-9
         6420.,    3.127E-9
         6440.,    3.108E-9
         6460.,    3.076E-9
         6480.,    3.067E-9
         6500.,    3.069E-9
         6520.,    2.949E-9
         6540.,    2.777E-9
         6560.,    2.785E-9
         6580.,    2.875E-9
         6600.,    2.924E-9
         6620.,    2.941E-9
         6640.,    2.941E-9
         6660.,    2.931E-9
         6680.,    2.938E-9
         6700.,    2.943E-9
         6720.,    2.930E-9
         6740.,    2.920E-9
         6760.,    2.910E-9
         6780.,    2.934E-9
         6800.,    2.952E-9
         6820.,    2.978E-9
         6840.,    2.960E-9
         6860.,    2.863E-9
         6880.,    2.875E-9
         6900.,    2.918E-9
         6920.,    2.846E-9
         6940.,    2.811E-9
         6960.,    2.804E-9
         6980.,    2.761E-9
         7000.,    2.741E-9
         7020.,    2.739E-9
         7040.,    2.728E-9
         7060.,    2.719E-9
         7080.,    2.692E-9
         7100.,    2.675E-9
         7120.,    2.654E-9
         7140.,    2.537E-9
         7160.,    2.386E-9
         7180.,    2.426E-9
         7200.,    2.555E-9
         7220.,    2.521E-9
         7240.,    2.455E-9
         7260.,    2.481E-9
         7280.,    2.505E-9
         7300.,    2.547E-9
         7320.,    2.572E-9
         7340.,    2.536E-9
         7360.,    2.489E-9
         7380.,    2.460E-9
         7400.,    2.438E-9
         7420.,    2.445E-9
         7440.,    2.444E-9
         7460.,    2.399E-9
         7480.,    2.367E-9
         7500.,    2.386E-9
         7520.,    2.420E-9
         7540.,    2.426E-9
         7560.,    2.126E-9
         7580.,    1.652E-9
         7600.,    1.690E-9
         7620.,    2.154E-9
         7640.,    2.395E-9
         7660.,    2.409E-9
         7680.,    2.333E-9
         7700.,    2.280E-9
         7720.,    2.276E-9
         7740.,    2.216E-9
         7760.,    2.175E-9
         7780.,    2.182E-9
         7800.,    2.186E-9
         7820.,    2.163E-9
         7840.,    2.161E-9
         7860.,    2.164E-9
         7880.,    2.132E-9
         7900.,    2.132E-9
         7920.,    2.103E-9
         7940.,    2.110E-9
         7960.,    2.114E-9
         7980.,    2.136E-9
         8000.,    2.115E-9
         8020.,    2.099E-9
         8040.,    2.117E-9
         8060.,    2.113E-9
         8080.,    2.109E-9
         8100.,    2.090E-9
         8120.,    2.119E-9
         8140.,    2.107E-9
         8160.,    2.075E-9
         8180.,    2.093E-9
         8200.,    2.060E-9
         8220.,    2.074E-9
         8240.,    2.106E-9
         8260.,    2.057E-9
         8280.,    2.036E-9
         8300.,    2.023E-9
         8320.,    1.962E-9
         8340.,    1.937E-9
         8360.,    1.942E-9
         8380.,    1.941E-9
         8400.,    1.902E-9
         8420.,    1.901E-9
         8440.,    1.927E-9
         8460.,    1.918E-9
         8480.,    1.878E-9
         8500.,    1.848E-9
         8520.,    1.818E-9
         8540.,    1.813E-9
         8560.,    1.822E-9
         8580.,    1.800E-9
         8600.,    1.792E-9
         8620.,    1.782E-9
         8640.,    1.752E-9
         8660.,    1.764E-9
         8680.,    1.790E-9
         8700.,    1.770E-9
         8720.,    1.746E-9
         8740.,    1.751E-9
         8760.,    1.740E-9
         8780.,    1.734E-9
         8800.,    1.746E-9
         8820.,    1.718E-9
         8840.,    1.693E-9
         8860.,    1.724E-9
         8880.,    1.730E-9
         8900.,    1.726E-9
         8920.,    1.718E-9
         8940.,    1.629E-9
         8960.,    1.538E-9
         8980.,    1.506E-9
         9000.,    1.578E-9
         9020.,    1.723E-9
         9040.,    1.703E-9
         9060.,    1.580E-9
         9080.,    1.625E-9
         9100.,    1.680E-9
         9120.,    1.629E-9
         9140.,    1.580E-9
         9160.,    1.615E-9
         9180.,    1.675E-9
         9200.,    1.683E-9
         9220.,    1.716E-9
         9240.,    1.716E-9
         9260.,    1.686E-9
         9280.,    1.625E-9
         9300.,    1.372E-9
         9320.,    1.183E-9
         9340.,    1.295E-9
         9360.,    1.548E-9
         9380.,    1.694E-9
         9400.,    1.599E-9
         9420.,    1.472E-9
         9440.,    1.529E-9
         9460.,    1.583E-9
         9480.,    1.513E-9
         9500.,    1.464E-9
         9520.,    1.450E-9
         9540.,    1.472E-9
         9560.,    1.503E-9
         9580.,    1.480E-9
         9600.,    1.447E-9
         9620.,    1.399E-9
         9640.,    1.403E-9
         9660.,    1.524E-9
         9680.,    1.577E-9
         9700.,    1.511E-9
         9720.,    1.450E-9
         9740.,    1.431E-9
         9760.,    1.427E-9
         9780.,    1.419E-9
         9800.,    1.388E-9
         9820.,    1.378E-9
         9840.,    1.373E-9
         9860.,    1.357E-9
         9880.,    1.361E-9
         9900.,    1.358E-9
         9920.,    1.342E-9
         9940.,    1.358E-9
         9960.,    1.377E-9
         9980.,    1.367E-9
        10000.,    1.358E-9
        10020.,    1.350E-9
        10040.,    1.332E-9
        10060.,    1.332E-9
        10080.,    1.338E-9
        10100.,    1.319E-9
        10120.,    1.290E-9
        10140.,    1.291E-9
        10160.,    1.283E-9
        10180.,    1.260E-9
        10200.,    1.259E-9
        10220.,    1.258E-9
        10240.,    1.246E-9
        10260.,    1.255E-9
        10280.,    1.246E-9
        10300.,    1.219E-9
        10320.,    1.220E-9
        10340.,    1.200E-9
        10360.,    1.171E-9
        10380.,    1.176E-9
        10400.,    1.179E-9
        10420.,    1.174E-9
        10440.,    1.177E-9
        10460.,    1.189E-9
        10480.,    1.202E-9
        10500.,    1.210E-9
        10520.,    1.236E-9
        10540.,    1.244E-9
        10560.,    1.193E-9
        10580.,    1.147E-9
        10600.,    1.155E-9
        10800.,    1.099E-9
        11000.,    1.047E-9
        11200.,   9.983E-10
        11400.,   9.519E-10
        11600.,   9.078E-10
        11800.,   8.658E-10
        12000.,   8.257E-10
        12200.,   7.872E-10
        12400.,   7.501E-10
        12600.,   7.139E-10
        12800.,   6.782E-10
        13000.,   6.532E-10
        13200.,   6.286E-10
        13400.,   6.040E-10
        13600.,   5.772E-10
        13800.,   5.532E-10
        14000.,   5.322E-10
        14200.,   5.136E-10
        14400.,   4.951E-10
        14600.,   4.772E-10
        14800.,   4.593E-10
        15000.,   4.414E-10
        15200.,   4.239E-10
        15400.,   4.074E-10
        15600.,   3.933E-10
        15800.,   3.799E-10
        16000.,   3.710E-10
        16200.,   3.636E-10
        16400.,   3.514E-10
        16600.,   3.356E-10
        16800.,   3.224E-10
        17000.,   3.110E-10
        17200.,   2.978E-10
        17400.,   2.848E-10
        17600.,   2.728E-10
        17800.,   2.625E-10
        18000.,   2.516E-10
        18200.,   2.417E-10
        18400.,   2.336E-10
        18600.,   2.257E-10
        18800.,   2.164E-10
        19000.,   2.096E-10
        19200.,   2.012E-10
        19400.,   1.938E-10
        19600.,   1.873E-10
        19800.,   1.808E-10
        20000.,   1.748E-10
        20200.,   1.690E-10
        20400.,   1.633E-10
        20600.,   1.571E-10
        20800.,   1.515E-10
        21000.,   1.458E-10
        21200.,   1.402E-10
        21400.,   1.361E-10
        21600.,   1.310E-10
        21800.,   1.273E-10
        22000.,   1.235E-10
        22200.,   1.201E-10
        22400.,   1.161E-10
        22600.,   1.127E-10
        22800.,   1.093E-10
        23000.,   1.059E-10
        23200.,   1.025E-10
        23400.,   9.966E-11
        23600.,   9.730E-11
        23800.,   9.396E-11
        24000.,   9.113E-11
        24200.,   8.884E-11
        24400.,   8.600E-11
        24600.,   8.324E-11
        24800.,   8.094E-11
        25000.,   7.818E-11
        25200.,   7.639E-11
        25400.,   7.413E-11
        25600.,   7.187E-11
