wavelength, flux
          229.,          0.
          234.,          0.
          243.,          0.
          252.,          0.
          256.,          0.
          260.,          0.
          266.,          0.
          275.,          0.
          283.,          0.
          293.,          0.
          301.,          0.
          309.,          0.
          325.,          0.
          342.,          0.
          351.,          0.
          356.,          0.
          365.,          0.
          375.,          0.
          384.,          0.
          400.,          0.
          415.,          0.
          425.,          0.
          445.,          0.
          472.,          0.
          494.,          0.
          506.,          0.
          516.,          0.
          540.,          0.
          564.,          0.
          587.,          0.
          612.,          0.
          640.,          0.
          671.,          0.
          705.,          0.
          736.,          0.
          770.,          0.
          810.,          0.
          850.,          0.
          890.,          0.
          920.,   1.133E-19
          940.,   3.426E-19
          962.,   6.870E-19
          987.,   1.459E-18
         1012.,   2.850E-18
         1037.,   5.178E-18
         1062.,   9.624E-18
         1087.,   1.712E-17
         1112.,   6.520E-16
         1120.,   8.160E-16
         1140.,   1.137E-15
         1160.,   1.767E-15
         1180.,   2.448E-15
         1200.,   3.321E-15
         1220.,   4.902E-15
         1240.,   1.010E-14
         1260.,   1.728E-14
         1280.,   2.334E-14
         1300.,   3.126E-14
         1320.,   4.046E-14
         1340.,   5.117E-14
         1360.,   6.476E-14
         1380.,   8.249E-14
         1400.,   1.060E-13
         1420.,   1.333E-13
         1440.,   1.669E-13
         1460.,   2.114E-13
         1480.,   2.603E-13
         1500.,   3.280E-13
         1520.,   1.043E-12
         1540.,   1.643E-12
         1560.,   1.640E-12
         1580.,   2.159E-12
         1600.,   2.718E-12
         1620.,   3.194E-12
         1640.,   3.552E-12
         1660.,   3.729E-12
         1680.,   8.935E-11
         1700.,   1.333E-10
         1720.,   1.622E-10
         1740.,   2.144E-10
         1760.,   2.050E-10
         1780.,   2.714E-10
         1800.,   2.320E-10
         1820.,   1.630E-10
         1840.,   1.895E-10
         1860.,   2.710E-10
         1880.,   3.043E-10
         1900.,   3.411E-10
         1920.,   3.909E-10
         1940.,   3.198E-10
         1960.,   3.352E-10
         1980.,   4.618E-10
         2000.,   4.558E-10
         2002.,   4.481E-10
         2005.,   4.403E-10
         2008.,   4.325E-10
         2010.,   4.247E-10
         2012.,   4.170E-10
         2015.,   4.092E-10
         2018.,   4.014E-10
         2020.,   3.936E-10
         2022.,   3.982E-10
         2025.,   4.029E-10
         2027.,   4.075E-10
         2030.,   4.121E-10
         2032.,   4.167E-10
         2035.,   4.214E-10
         2038.,   4.260E-10
         2040.,   4.306E-10
         2042.,   4.260E-10
         2045.,   4.214E-10
         2048.,   4.168E-10
         2050.,   4.122E-10
         2052.,   4.077E-10
         2055.,   4.031E-10
         2058.,   3.985E-10
         2060.,   3.939E-10
         2062.,   4.032E-10
         2065.,   4.126E-10
         2067.,   4.219E-10
         2070.,   4.313E-10
         2072.,   4.406E-10
         2075.,   4.500E-10
         2077.,   4.593E-10
         2080.,   4.687E-10
         2082.,   4.697E-10
         2085.,   4.708E-10
         2088.,   4.719E-10
         2090.,   4.730E-10
         2092.,   4.741E-10
         2095.,   4.751E-10
         2098.,   4.762E-10
         2100.,   4.773E-10
         2102.,   4.805E-10
         2105.,   4.837E-10
         2107.,   4.869E-10
         2110.,   4.901E-10
         2112.,   4.933E-10
         2115.,   4.965E-10
         2118.,   4.997E-10
         2120.,   5.029E-10
         2122.,   5.058E-10
         2125.,   5.087E-10
         2128.,   5.116E-10
         2130.,   5.145E-10
         2133.,   5.174E-10
         2135.,   5.203E-10
         2138.,   5.232E-10
         2140.,   5.262E-10
         2142.,   5.268E-10
         2145.,   5.275E-10
         2147.,   5.282E-10
         2150.,   5.289E-10
         2153.,   5.296E-10
         2155.,   5.302E-10
         2157.,   5.309E-10
         2160.,   5.316E-10
         2162.,   5.371E-10
         2165.,   5.425E-10
         2168.,   5.479E-10
         2170.,   5.533E-10
         2173.,   5.588E-10
         2175.,   5.642E-10
         2177.,   5.696E-10
         2180.,   5.750E-10
         2182.,   5.869E-10
         2185.,   5.988E-10
         2187.,   6.106E-10
         2190.,   6.225E-10
         2193.,   6.343E-10
         2195.,   6.462E-10
         2198.,   6.580E-10
         2200.,   6.699E-10
         2202.,   6.677E-10
         2205.,   6.656E-10
         2208.,   6.634E-10
         2210.,   6.613E-10
         2213.,   6.591E-10
         2215.,   6.570E-10
         2218.,   6.548E-10
         2220.,   6.527E-10
         2222.,   6.530E-10
         2225.,   6.533E-10
         2227.,   6.536E-10
         2230.,   6.540E-10
         2233.,   6.543E-10
         2235.,   6.546E-10
         2237.,   6.549E-10
         2240.,   6.553E-10
         2242.,   6.592E-10
         2245.,   6.632E-10
         2248.,   6.671E-10
         2250.,   6.711E-10
         2253.,   6.750E-10
         2255.,   6.790E-10
         2257.,   6.829E-10
         2260.,   6.869E-10
         2262.,   6.750E-10
         2265.,   6.632E-10
         2267.,   6.514E-10
         2270.,   6.396E-10
         2273.,   6.278E-10
         2275.,   6.159E-10
         2277.,   6.041E-10
         2280.,   5.923E-10
         2282.,   6.016E-10
         2285.,   6.109E-10
         2288.,   6.202E-10
         2290.,   6.295E-10
         2293.,   6.388E-10
         2295.,   6.481E-10
         2298.,   6.575E-10
         2300.,   6.668E-10
         2302.,   6.646E-10
         2305.,   6.625E-10
         2307.,   6.604E-10
         2310.,   6.583E-10
         2313.,   6.561E-10
         2315.,   6.540E-10
         2317.,   6.519E-10
         2320.,   6.498E-10
         2322.,   6.394E-10
         2325.,   6.289E-10
         2327.,   6.185E-10
         2330.,   6.081E-10
         2333.,   5.977E-10
         2335.,   5.873E-10
         2337.,   5.768E-10
         2340.,   5.664E-10
         2342.,   5.549E-10
         2345.,   5.433E-10
         2347.,   5.318E-10
         2350.,   5.203E-10
         2353.,   5.087E-10
         2355.,   4.972E-10
         2357.,   4.857E-10
         2360.,   4.741E-10
         2362.,   4.712E-10
         2365.,   4.684E-10
         2368.,   4.655E-10
         2370.,   4.626E-10
         2373.,   4.597E-10
         2375.,   4.569E-10
         2377.,   4.540E-10
         2380.,   4.511E-10
         2383.,   4.364E-10
         2385.,   4.217E-10
         2387.,   4.069E-10
         2390.,   3.922E-10
         2393.,   3.774E-10
         2395.,   3.627E-10
         2397.,   3.480E-10
         2400.,   3.332E-10
         2403.,   3.516E-10
         2405.,   3.699E-10
         2407.,   3.882E-10
         2410.,   4.066E-10
         2413.,   4.249E-10
         2415.,   4.432E-10
         2417.,   4.615E-10
         2420.,   4.799E-10
         2423.,   4.996E-10
         2425.,   5.194E-10
         2427.,   5.392E-10
         2430.,   5.590E-10
         2433.,   5.787E-10
         2435.,   5.985E-10
         2437.,   6.182E-10
         2440.,   6.380E-10
         2443.,   6.373E-10
         2445.,   6.366E-10
         2448.,   6.360E-10
         2450.,   6.353E-10
         2452.,   6.346E-10
         2455.,   6.339E-10
         2457.,   6.332E-10
         2460.,   6.325E-10
         2463.,   6.307E-10
         2465.,   6.289E-10
         2467.,   6.270E-10
         2470.,   6.252E-10
         2473.,   6.234E-10
         2475.,   6.216E-10
         2477.,   6.197E-10
         2480.,   6.179E-10
         2483.,   6.154E-10
         2485.,   6.128E-10
         2487.,   6.103E-10
         2490.,   6.078E-10
         2493.,   6.053E-10
         2495.,   6.028E-10
         2497.,   6.003E-10
         2500.,   5.977E-10
         2502.,   5.834E-10
         2505.,   5.690E-10
         2507.,   5.546E-10
         2510.,   5.402E-10
         2513.,   5.259E-10
         2515.,   5.115E-10
         2518.,   4.971E-10
         2520.,   4.827E-10
         2522.,   4.720E-10
         2525.,   4.612E-10
         2527.,   4.504E-10
         2530.,   4.396E-10
         2532.,   4.288E-10
         2535.,   4.180E-10
         2538.,   4.073E-10
         2540.,   3.965E-10
         2542.,   4.231E-10
         2545.,   4.497E-10
         2548.,   4.763E-10
         2550.,   5.029E-10
         2552.,   5.295E-10
         2555.,   5.561E-10
         2558.,   5.827E-10
         2560.,   6.093E-10
         2562.,   6.373E-10
         2565.,   6.654E-10
         2567.,   6.935E-10
         2570.,   7.215E-10
         2573.,   7.496E-10
         2575.,   7.777E-10
         2577.,   8.057E-10
         2580.,   8.338E-10
         2582.,   8.262E-10
         2585.,   8.187E-10
         2587.,   8.111E-10
         2590.,   8.035E-10
         2593.,   7.959E-10
         2595.,   7.883E-10
         2598.,   7.807E-10
         2600.,   7.731E-10
         2602.,   7.584E-10
         2605.,   7.437E-10
         2607.,   7.289E-10
         2610.,   7.142E-10
         2612.,   6.995E-10
         2615.,   6.847E-10
         2618.,   6.700E-10
         2620.,   6.553E-10
         2622.,   7.059E-10
         2625.,   7.566E-10
         2627.,   8.073E-10
         2630.,   8.579E-10
         2633.,   9.086E-10
         2635.,   9.593E-10
         2638.,    1.010E-9
         2640.,    1.061E-9
         2642.,    1.122E-9
         2645.,    1.184E-9
         2647.,    1.245E-9
         2650.,    1.307E-9
         2652.,    1.368E-9
         2655.,    1.430E-9
         2657.,    1.491E-9
         2660.,    1.553E-9
         2662.,    1.534E-9
         2665.,    1.515E-9
         2667.,    1.497E-9
         2670.,    1.478E-9
         2673.,    1.459E-9
         2675.,    1.440E-9
         2677.,    1.422E-9
         2680.,    1.403E-9
         2682.,    1.405E-9
         2685.,    1.407E-9
         2687.,    1.410E-9
         2690.,    1.412E-9
         2692.,    1.414E-9
         2695.,    1.416E-9
         2698.,    1.418E-9
         2700.,    1.420E-9
         2702.,    1.414E-9
         2705.,    1.407E-9
         2707.,    1.400E-9
         2710.,    1.393E-9
         2713.,    1.386E-9
         2715.,    1.379E-9
         2718.,    1.373E-9
         2720.,    1.366E-9
         2722.,    1.327E-9
         2725.,    1.287E-9
         2727.,    1.248E-9
         2730.,    1.209E-9
         2732.,    1.170E-9
         2735.,    1.131E-9
         2737.,    1.091E-9
         2740.,    1.052E-9
         2742.,    1.045E-9
         2745.,    1.039E-9
         2747.,    1.032E-9
         2750.,    1.025E-9
         2753.,    1.018E-9
         2755.,    1.011E-9
         2758.,    1.005E-9
         2760.,   9.977E-10
         2762.,    1.024E-9
         2765.,    1.050E-9
         2767.,    1.076E-9
         2770.,    1.103E-9
         2772.,    1.129E-9
         2775.,    1.155E-9
         2778.,    1.181E-9
         2780.,    1.208E-9
         2782.,    1.110E-9
         2785.,    1.013E-9
         2787.,   9.154E-10
         2790.,   8.180E-10
         2793.,   7.206E-10
         2795.,   6.232E-10
         2798.,   5.258E-10
         2800.,   4.284E-10
         2802.,   5.214E-10
         2805.,   6.145E-10
         2807.,   7.076E-10
         2810.,   8.006E-10
         2812.,   8.936E-10
         2815.,   9.867E-10
         2817.,    1.080E-9
         2820.,    1.173E-9
         2823.,    1.212E-9
         2825.,    1.251E-9
         2827.,    1.290E-9
         2830.,    1.329E-9
         2833.,    1.369E-9
         2835.,    1.408E-9
         2838.,    1.447E-9
         2840.,    1.486E-9
         2842.,    1.473E-9
         2845.,    1.459E-9
         2847.,    1.445E-9
         2850.,    1.432E-9
         2852.,    1.418E-9
         2855.,    1.404E-9
         2858.,    1.391E-9
         2860.,    1.377E-9
         2862.,    1.395E-9
         2865.,    1.412E-9
         2867.,    1.430E-9
         2870.,    1.448E-9
         2873.,    1.465E-9
         2875.,    1.483E-9
         2878.,    1.500E-9
         2880.,    1.518E-9
         2883.,    1.575E-9
         2885.,    1.632E-9
         2887.,    1.689E-9
         2890.,    1.747E-9
         2892.,    1.804E-9
         2895.,    1.861E-9
         2898.,    1.918E-9
         2900.,    1.975E-9
         2903.,    1.974E-9
         2905.,    1.973E-9
         2907.,    1.972E-9
         2910.,    1.971E-9
         2913.,    1.970E-9
         2915.,    1.968E-9
         2918.,    1.967E-9
         2920.,    1.966E-9
         2923.,    1.965E-9
         2925.,    1.963E-9
         2927.,    1.961E-9
         2930.,    1.959E-9
         2932.,    1.958E-9
         2935.,    1.956E-9
         2938.,    1.954E-9
         2940.,    1.952E-9
         2942.,    1.945E-9
         2945.,    1.938E-9
         2948.,    1.931E-9
         2950.,    1.923E-9
         2952.,    1.916E-9
         2955.,    1.909E-9
         2958.,    1.902E-9
         2960.,    1.894E-9
         2963.,    1.899E-9
         2965.,    1.905E-9
         2967.,    1.910E-9
         2970.,    1.915E-9
         2972.,    1.920E-9
         2975.,    1.925E-9
         2978.,    1.930E-9
         2980.,    1.935E-9
         2983.,    1.941E-9
         2985.,    1.948E-9
         2987.,    1.954E-9
         2990.,    1.961E-9
         2993.,    1.967E-9
         2995.,    1.974E-9
         2998.,    1.980E-9
         3000.,    1.987E-9
         3003.,    1.990E-9
         3005.,    1.992E-9
         3007.,    1.995E-9
         3010.,    1.998E-9
         3012.,    2.001E-9
         3015.,    2.004E-9
         3018.,    2.007E-9
         3020.,    2.009E-9
         3023.,    2.031E-9
         3025.,    2.053E-9
         3027.,    2.074E-9
         3030.,    2.096E-9
         3032.,    2.117E-9
         3035.,    2.139E-9
         3038.,    2.161E-9
         3040.,    2.182E-9
         3043.,    2.179E-9
         3045.,    2.176E-9
         3048.,    2.174E-9
         3050.,    2.171E-9
         3052.,    2.168E-9
         3055.,    2.165E-9
         3058.,    2.162E-9
         3060.,    2.159E-9
         3063.,    2.162E-9
         3065.,    2.165E-9
         3067.,    2.169E-9
         3070.,    2.172E-9
         3073.,    2.175E-9
         3075.,    2.179E-9
         3077.,    2.182E-9
         3080.,    2.185E-9
         3083.,    2.188E-9
         3085.,    2.190E-9
         3087.,    2.193E-9
         3090.,    2.195E-9
         3092.,    2.198E-9
         3095.,    2.200E-9
         3098.,    2.202E-9
         3100.,    2.205E-9
         3103.,    2.214E-9
         3105.,    2.224E-9
         3107.,    2.233E-9
         3110.,    2.242E-9
         3112.,    2.252E-9
         3115.,    2.261E-9
         3118.,    2.270E-9
         3120.,    2.280E-9
         3123.,    2.282E-9
         3125.,    2.283E-9
         3127.,    2.285E-9
         3130.,    2.287E-9
         3132.,    2.289E-9
         3135.,    2.291E-9
         3138.,    2.293E-9
         3140.,    2.294E-9
         3143.,    2.300E-9
         3145.,    2.305E-9
         3147.,    2.311E-9
         3150.,    2.316E-9
         3152.,    2.321E-9
         3155.,    2.327E-9
         3157.,    2.332E-9
         3160.,    2.338E-9
         3163.,    2.328E-9
         3165.,    2.318E-9
         3167.,    2.308E-9
         3170.,    2.299E-9
         3173.,    2.289E-9
         3175.,    2.279E-9
         3177.,    2.270E-9
         3180.,    2.260E-9
         3183.,    2.281E-9
         3185.,    2.302E-9
         3187.,    2.323E-9
         3190.,    2.345E-9
         3192.,    2.366E-9
         3195.,    2.387E-9
         3198.,    2.408E-9
         3200.,    2.429E-9
         3202.,    2.427E-9
         3205.,    2.424E-9
         3208.,    2.422E-9
         3210.,    2.419E-9
         3212.,    2.417E-9
         3215.,    2.414E-9
         3217.,    2.412E-9
         3220.,    2.409E-9
         3223.,    2.414E-9
         3225.,    2.419E-9
         3227.,    2.425E-9
         3230.,    2.430E-9
         3233.,    2.435E-9
         3235.,    2.440E-9
         3237.,    2.445E-9
         3240.,    2.450E-9
         3260.,    2.841E-9
         3270.,    2.557E-9
         3280.,    2.461E-9
         3290.,    2.729E-9
         3300.,    2.701E-9
         3310.,    2.616E-9
         3320.,    2.607E-9
         3330.,    2.561E-9
         3340.,    2.578E-9
         3350.,    2.587E-9
         3360.,    2.585E-9
         3370.,    2.591E-9
         3380.,    2.624E-9
         3390.,    2.777E-9
         3400.,    2.754E-9
         3410.,    2.743E-9
         3420.,    2.852E-9
         3430.,    2.821E-9
         3440.,    2.681E-9
         3450.,    2.776E-9
         3460.,    2.865E-9
         3470.,    2.838E-9
         3480.,    2.839E-9
         3490.,    2.814E-9
         3500.,    2.983E-9
         3510.,    2.934E-9
         3520.,    2.819E-9
         3530.,    2.942E-9
         3540.,    3.121E-9
         3550.,    3.151E-9
         3560.,    2.927E-9
         3570.,    2.828E-9
         3580.,    2.679E-9
         3590.,    2.871E-9
         3600.,    3.023E-9
         3610.,    2.867E-9
         3620.,    2.939E-9
         3630.,    3.054E-9
         3640.,    2.929E-9
         3650.,    3.100E-9
         3660.,    3.283E-9
         3670.,    3.203E-9
         3680.,    3.122E-9
         3690.,    3.266E-9
         3700.,    3.230E-9
         3710.,    3.177E-9
         3720.,    3.323E-9
         3730.,    3.039E-9
         3740.,    2.908E-9
         3750.,    3.157E-9
         3760.,    3.279E-9
         3770.,    3.432E-9
         3780.,    3.719E-9
         3790.,    3.436E-9
         3800.,    3.540E-9
         3810.,    3.707E-9
         3820.,    3.219E-9
         3830.,    2.699E-9
         3840.,    3.092E-9
         3850.,    3.651E-9
         3860.,    3.698E-9
         3870.,    3.618E-9
         3880.,    3.144E-9
         3890.,    3.096E-9
         3900.,    3.326E-9
         3910.,    3.521E-9
         3920.,    3.144E-9
         3930.,    2.322E-9
         3940.,    2.686E-9
         3950.,    3.527E-9
         3960.,    2.759E-9
         3970.,    2.624E-9
         3980.,    3.882E-9
         3990.,    4.206E-9
         4000.,    4.352E-9
         4010.,    4.418E-9
         4020.,    4.564E-9
         4030.,    4.633E-9
         4040.,    4.657E-9
         4050.,    4.585E-9
         4060.,    4.560E-9
         4070.,    4.448E-9
         4080.,    4.417E-9
         4090.,    4.192E-9
         4100.,    3.954E-9
         4110.,    4.244E-9
         4120.,    4.367E-9
         4130.,    4.396E-9
         4140.,    4.392E-9
         4150.,    4.350E-9
         4160.,    4.328E-9
         4170.,    4.226E-9
         4180.,    4.144E-9
         4190.,    4.231E-9
         4200.,    4.240E-9
         4210.,    4.331E-9
         4220.,    4.174E-9
         4230.,    4.039E-9
         4240.,    4.166E-9
         4250.,    4.149E-9
         4260.,    4.106E-9
         4270.,    4.055E-9
         4280.,    3.924E-9
         4290.,    3.660E-9
         4300.,    3.144E-9
         4310.,    3.524E-9
         4320.,    4.084E-9
         4330.,    3.551E-9
         4340.,    3.515E-9
         4350.,    3.970E-9
         4360.,    4.186E-9
         4370.,    4.242E-9
         4380.,    3.941E-9
         4390.,    3.972E-9
         4400.,    4.138E-9
         4410.,    4.102E-9
         4420.,    4.228E-9
         4430.,    4.152E-9
         4440.,    4.105E-9
         4450.,    4.056E-9
         4460.,    4.118E-9
         4470.,    4.207E-9
         4480.,    4.180E-9
         4490.,    4.180E-9
         4500.,    4.204E-9
         4510.,    4.221E-9
         4520.,    4.082E-9
         4530.,    4.020E-9
         4540.,    4.029E-9
         4550.,    4.079E-9
         4560.,    4.119E-9
         4570.,    4.136E-9
         4580.,    4.073E-9
         4590.,    4.087E-9
         4600.,    4.124E-9
         4610.,    4.172E-9
         4620.,    4.180E-9
         4630.,    4.191E-9
         4640.,    4.159E-9
         4650.,    4.159E-9
         4660.,    4.105E-9
         4670.,    4.149E-9
         4680.,    4.202E-9
         4690.,    4.153E-9
         4700.,    4.094E-9
         4710.,    4.171E-9
         4720.,    4.173E-9
         4730.,    4.165E-9
         4740.,    4.218E-9
         4750.,    4.182E-9
         4760.,    4.128E-9
         4770.,    4.194E-9
         4780.,    4.255E-9
         4790.,    4.242E-9
         4800.,    4.279E-9
         4810.,    4.253E-9
         4820.,    4.300E-9
         4830.,    4.242E-9
         4840.,    4.188E-9
         4850.,    3.894E-9
         4860.,    3.652E-9
         4870.,    3.830E-9
         4880.,    3.995E-9
         4890.,    3.937E-9
         4900.,    3.996E-9
         4910.,    3.918E-9
         4920.,    3.956E-9
         4930.,    3.981E-9
         4940.,    4.026E-9
         4950.,    3.997E-9
         4960.,    3.963E-9
         4970.,    3.972E-9
         4980.,    3.917E-9
         4990.,    3.874E-9
         5000.,    3.890E-9
         5010.,    3.818E-9
         5020.,    3.837E-9
         5030.,    3.887E-9
         5040.,    3.857E-9
         5050.,    3.906E-9
         5060.,    3.890E-9
         5070.,    3.819E-9
         5080.,    3.805E-9
         5090.,    3.837E-9
         5100.,    3.792E-9
         5110.,    3.871E-9
         5120.,    3.920E-9
         5130.,    3.861E-9
         5140.,    3.845E-9
         5150.,    3.907E-9
         5160.,    3.752E-9
         5170.,    3.617E-9
         5180.,    3.605E-9
         5190.,    3.665E-9
         5200.,    3.723E-9
         5210.,    3.758E-9
         5220.,    3.762E-9
         5230.,    3.738E-9
         5240.,    3.771E-9
         5250.,    3.803E-9
         5260.,    3.676E-9
         5270.,    3.630E-9
         5280.,    3.770E-9
         5290.,    3.778E-9
         5300.,    3.785E-9
         5310.,    3.759E-9
         5320.,    3.690E-9
         5330.,    3.699E-9
         5340.,    3.711E-9
         5350.,    3.749E-9
         5360.,    3.724E-9
         5370.,    3.697E-9
         5380.,    3.714E-9
         5390.,    3.681E-9
         5400.,    3.659E-9
         5410.,    3.667E-9
         5420.,    3.672E-9
         5430.,    3.689E-9
         5440.,    3.688E-9
         5450.,    3.719E-9
         5460.,    3.671E-9
         5470.,    3.652E-9
         5480.,    3.661E-9
         5490.,    3.643E-9
         5500.,    3.659E-9
         5510.,    3.674E-9
         5520.,    3.625E-9
         5530.,    3.641E-9
         5540.,    3.660E-9
         5550.,    3.675E-9
         5560.,    3.659E-9
         5570.,    3.638E-9
         5580.,    3.622E-9
         5590.,    3.623E-9
         5600.,    3.617E-9
         5610.,    3.643E-9
         5620.,    3.679E-9
         5630.,    3.648E-9
         5640.,    3.674E-9
         5650.,    3.681E-9
         5660.,    3.648E-9
         5670.,    3.628E-9
         5680.,    3.653E-9
         5690.,    3.616E-9
         5700.,    3.634E-9
         5710.,    3.597E-9
         5720.,    3.619E-9
         5730.,    3.670E-9
         5740.,    3.650E-9
         5760.,    3.602E-9
         5780.,    3.570E-9
         5800.,    3.523E-9
         5820.,    3.541E-9
         5840.,    3.497E-9
         5860.,    3.461E-9
         5880.,    3.399E-9
         5900.,    3.398E-9
         5920.,    3.397E-9
         5940.,    3.406E-9
         5960.,    3.404E-9
         5980.,    3.419E-9
         6000.,    3.408E-9
         6020.,    3.373E-9
         6040.,    3.411E-9
         6060.,    3.413E-9
         6080.,    3.313E-9
         6100.,    3.241E-9
         6120.,    3.208E-9
         6140.,    3.249E-9
         6160.,    3.172E-9
         6180.,    3.236E-9
         6200.,    3.215E-9
         6220.,    3.160E-9
         6240.,    3.176E-9
         6260.,    3.187E-9
         6280.,    3.175E-9
         6300.,    3.150E-9
         6320.,    3.202E-9
         6340.,    3.195E-9
         6360.,    3.200E-9
         6380.,    3.190E-9
         6400.,    3.213E-9
         6420.,    3.185E-9
         6440.,    3.155E-9
         6460.,    3.178E-9
         6480.,    3.135E-9
         6500.,    3.118E-9
         6520.,    3.114E-9
         6540.,    3.041E-9
         6560.,    2.879E-9
         6580.,    2.938E-9
         6600.,    3.090E-9
         6620.,    3.109E-9
         6640.,    3.033E-9
         6660.,    3.025E-9
         6680.,    2.987E-9
         6700.,    2.930E-9
         6720.,    2.924E-9
         6740.,    2.888E-9
         6760.,    2.827E-9
         6780.,    2.820E-9
         6800.,    2.823E-9
         6820.,    2.806E-9
         6840.,    2.865E-9
         6860.,    2.727E-9
         6880.,    2.620E-9
         6900.,    2.679E-9
         6920.,    2.707E-9
         6940.,    2.675E-9
         6960.,    2.653E-9
         6980.,    2.663E-9
         7000.,    2.605E-9
         7020.,    2.624E-9
         7040.,    2.649E-9
         7060.,    2.667E-9
         7080.,    2.676E-9
         7100.,    2.652E-9
         7120.,    2.644E-9
         7140.,    2.638E-9
         7160.,    2.699E-9
         7180.,    2.694E-9
         7200.,    2.607E-9
         7220.,    2.610E-9
         7240.,    2.578E-9
         7260.,    2.560E-9
         7280.,    2.548E-9
         7300.,    2.569E-9
         7320.,    2.561E-9
         7340.,    2.541E-9
         7360.,    2.513E-9
         7380.,    2.530E-9
         7400.,    2.492E-9
         7420.,    2.481E-9
         7440.,    2.503E-9
         7460.,    2.492E-9
         7480.,    2.435E-9
         7500.,    2.444E-9
         7520.,    2.446E-9
         7540.,    2.447E-9
         7560.,    2.446E-9
         7580.,    2.552E-9
         7600.,    2.210E-9
         7620.,    2.176E-9
         7640.,    2.304E-9
         7660.,    2.305E-9
         7680.,    2.215E-9
         7700.,    2.328E-9
         7720.,    2.351E-9
         7740.,    2.350E-9
         7760.,    2.305E-9
         7780.,    2.306E-9
         7800.,    2.297E-9
         7820.,    2.291E-9
         7840.,    2.278E-9
         7860.,    2.273E-9
         7880.,    2.276E-9
         7900.,    2.249E-9
         7920.,    2.211E-9
         7940.,    2.212E-9
         7960.,    2.197E-9
         7980.,    2.171E-9
         8000.,    2.165E-9
         8020.,    2.165E-9
         8040.,    2.150E-9
         8060.,    2.152E-9
         8080.,    2.143E-9
         8100.,    2.125E-9
         8120.,    2.143E-9
         8140.,    2.176E-9
         8160.,    2.111E-9
         8180.,    2.109E-9
         8200.,    2.218E-9
         8220.,    2.149E-9
         8240.,    2.112E-9
         8260.,    2.201E-9
         8280.,    2.172E-9
         8300.,    2.163E-9
         8320.,    2.096E-9
         8340.,    2.078E-9
         8360.,    2.090E-9
         8380.,    2.114E-9
         8400.,    2.129E-9
         8420.,    2.068E-9
         8440.,    2.081E-9
         8460.,    2.050E-9
         8480.,    1.978E-9
         8500.,    1.977E-9
         8520.,    1.921E-9
         8540.,    1.912E-9
         8560.,    1.891E-9
         8580.,    1.971E-9
         8600.,    1.960E-9
         8620.,    2.018E-9
         8640.,    1.940E-9
         8660.,    1.886E-9
         8680.,    1.889E-9
         8700.,    1.902E-9
         8720.,    1.877E-9
         8740.,    1.893E-9
         8760.,    1.844E-9
         8780.,    1.853E-9
         8800.,    1.839E-9
         8820.,    1.817E-9
         8840.,    1.784E-9
         8860.,    1.797E-9
         8880.,    1.782E-9
         8900.,    1.788E-9
         8920.,    1.766E-9
         8940.,    1.767E-9
         8960.,    1.818E-9
         8980.,    1.814E-9
         9000.,    1.723E-9
         9020.,    1.753E-9
         9040.,    1.845E-9
         9060.,    1.820E-9
         9080.,    1.718E-9
         9100.,    1.742E-9
         9120.,    1.742E-9
         9140.,    1.689E-9
         9160.,    1.674E-9
         9180.,    1.680E-9
         9200.,    1.715E-9
         9220.,    1.696E-9
         9240.,    1.644E-9
         9260.,    1.629E-9
         9280.,    1.682E-9
         9300.,    1.638E-9
         9320.,    1.537E-9
         9340.,    1.566E-9
         9360.,    1.519E-9
         9380.,    1.621E-9
         9400.,    1.737E-9
         9420.,    1.538E-9
         9440.,    1.461E-9
         9460.,    1.503E-9
         9480.,    1.530E-9
         9500.,    1.539E-9
         9520.,    1.530E-9
         9540.,    1.550E-9
         9560.,    1.533E-9
         9580.,    1.533E-9
         9600.,    1.484E-9
         9620.,    1.546E-9
         9640.,    1.531E-9
         9660.,    1.572E-9
         9680.,    1.519E-9
         9700.,    1.530E-9
         9720.,    1.512E-9
         9740.,    1.538E-9
         9760.,    1.512E-9
         9780.,    1.484E-9
         9800.,    1.465E-9
         9820.,    1.467E-9
         9840.,    1.478E-9
         9860.,    1.456E-9
         9880.,    1.461E-9
         9900.,    1.433E-9
         9920.,    1.415E-9
         9940.,    1.421E-9
         9960.,    1.403E-9
         9980.,    1.395E-9
        10000.,    1.398E-9
        10020.,    1.414E-9
        10040.,    1.364E-9
        10060.,    1.365E-9
        10080.,    1.387E-9
        10100.,    1.361E-9
        10120.,    1.353E-9
        10140.,    1.365E-9
        10160.,    1.379E-9
        10180.,    1.351E-9
        10200.,    1.293E-9
        10220.,    1.333E-9
        10240.,    1.308E-9
        10260.,    1.291E-9
        10280.,    1.299E-9
        10300.,    1.292E-9
        10320.,    1.305E-9
        10340.,    1.283E-9
        10360.,    1.294E-9
        10380.,    1.276E-9
        10400.,    1.319E-9
        10420.,    1.263E-9
        10440.,    1.297E-9
        10460.,    1.250E-9
        10480.,    1.256E-9
        10500.,    1.237E-9
        10520.,    1.283E-9
        10540.,    1.262E-9
        10560.,    1.243E-9
        10580.,    1.247E-9
        10600.,    1.228E-9
        10800.,    1.172E-9
        11000.,    1.114E-9
        11200.,    1.056E-9
        11400.,    1.000E-9
        11600.,   9.457E-10
        11800.,   8.942E-10
        12000.,   8.461E-10
        12200.,   8.016E-10
        12400.,   7.611E-10
        12600.,   7.245E-10
        12800.,   6.892E-10
        13000.,   6.632E-10
        13200.,   6.384E-10
        13400.,   6.136E-10
        13600.,   5.865E-10
        13800.,   5.622E-10
        14000.,   5.409E-10
        14200.,   5.222E-10
        14400.,   5.036E-10
        14600.,   4.855E-10
        14800.,   4.674E-10
        15000.,   4.493E-10
        15200.,   4.315E-10
        15400.,   4.147E-10
        15600.,   4.004E-10
        15800.,   3.869E-10
        16000.,   3.778E-10
        16200.,   3.705E-10
        16400.,   3.582E-10
        16600.,   3.419E-10
        16800.,   3.287E-10
        17000.,   3.169E-10
        17200.,   3.034E-10
        17400.,   2.904E-10
        17600.,   2.780E-10
        17800.,   2.674E-10
        18000.,   2.563E-10
        18200.,   2.464E-10
        18400.,   2.380E-10
        18600.,   2.299E-10
        18800.,   2.206E-10
        19000.,   2.136E-10
        19200.,   2.050E-10
        19400.,   1.975E-10
        19600.,   1.909E-10
        19800.,   1.842E-10
        20000.,   1.781E-10
        20200.,   1.723E-10
        20400.,   1.664E-10
        20600.,   1.601E-10
        20800.,   1.544E-10
        21000.,   1.486E-10
        21200.,   1.429E-10
        21400.,   1.387E-10
        21600.,   1.336E-10
        21800.,   1.297E-10
        22000.,   1.259E-10
        22200.,   1.224E-10
        22400.,   1.184E-10
        22600.,   1.149E-10
        22800.,   1.114E-10
        23000.,   1.080E-10
        23200.,   1.045E-10
        23400.,   1.016E-10
        23600.,   9.921E-11
        23800.,   9.580E-11
        24000.,   9.291E-11
        24200.,   9.057E-11
        24400.,   8.768E-11
        24600.,   8.486E-11
        24800.,   8.253E-11
        25000.,   7.969E-11
        25200.,   7.788E-11
        25400.,   7.558E-11
        25600.,   7.328E-11
