wavelength, flux
          229.,          0.
          234.,          0.
          243.,          0.
          252.,          0.
          256.,          0.
          260.,          0.
          266.,          0.
          275.,          0.
          283.,          0.
          293.,          0.
          301.,          0.
          309.,          0.
          325.,          0.
          342.,          0.
          351.,          0.
          356.,          0.
          365.,          0.
          375.,          0.
          384.,          0.
          400.,          0.
          415.,          0.
          425.,          0.
          445.,          0.
          472.,          0.
          494.,          0.
          506.,          0.
          516.,          0.
          540.,          0.
          564.,          0.
          587.,          0.
          612.,          0.
          640.,          0.
          671.,          0.
          705.,          0.
          736.,          0.
          770.,          0.
          810.,          0.
          850.,          0.
          890.,          0.
          920.,   3.015E-21
          940.,   1.019E-20
          962.,   2.169E-20
          987.,   4.865E-20
         1012.,   9.903E-20
         1037.,   1.864E-19
         1062.,   3.608E-19
         1087.,   6.714E-19
         1112.,   1.099E-17
         1120.,   1.352E-17
         1140.,   1.957E-17
         1160.,   3.093E-17
         1180.,   4.465E-17
         1200.,   6.277E-17
         1220.,   9.280E-17
         1240.,   1.415E-16
         1260.,   2.032E-16
         1280.,   2.783E-16
         1300.,   3.850E-16
         1320.,   5.112E-16
         1340.,   6.594E-16
         1360.,   8.568E-16
         1380.,   1.131E-15
         1400.,   1.491E-15
         1420.,   1.941E-15
         1440.,   2.524E-15
         1460.,   3.288E-15
         1480.,   4.202E-15
         1500.,   5.449E-15
         1520.,   4.433E-14
         1540.,   7.968E-14
         1560.,   8.291E-14
         1580.,   1.061E-13
         1600.,   1.374E-13
         1620.,   1.688E-13
         1640.,   1.965E-13
         1660.,   2.150E-13
         1680.,   2.764E-12
         1700.,   4.215E-12
         1720.,   5.262E-12
         1740.,   6.935E-12
         1760.,   6.834E-12
         1780.,   9.467E-12
         1800.,   8.970E-12
         1820.,   7.286E-12
         1840.,   7.586E-12
         1860.,   9.760E-12
         1880.,   1.125E-11
         1900.,   1.313E-11
         1920.,   1.570E-11
         1940.,   1.393E-11
         1960.,   1.407E-11
         1980.,   1.987E-11
         2000.,   2.087E-11
         2002.,   2.203E-11
         2005.,   2.735E-11
         2008.,   2.921E-11
         2010.,   3.018E-11
         2012.,   3.042E-11
         2015.,   3.054E-11
         2018.,   3.004E-11
         2020.,   2.986E-11
         2022.,   2.994E-11
         2025.,   2.993E-11
         2027.,   2.992E-11
         2030.,   3.118E-11
         2032.,   3.314E-11
         2035.,   3.642E-11
         2038.,   3.856E-11
         2040.,   3.993E-11
         2042.,   4.086E-11
         2045.,   4.138E-11
         2048.,   4.218E-11
         2050.,   4.280E-11
         2052.,   4.297E-11
         2055.,   4.299E-11
         2058.,   4.251E-11
         2060.,   4.317E-11
         2062.,   4.453E-11
         2065.,   4.709E-11
         2067.,   4.965E-11
         2070.,   5.076E-11
         2072.,   5.220E-11
         2075.,   5.433E-11
         2077.,   5.712E-11
         2080.,   6.021E-11
         2082.,   6.416E-11
         2085.,   6.870E-11
         2088.,   6.839E-11
         2090.,   6.883E-11
         2092.,   7.037E-11
         2095.,   7.151E-11
         2098.,   7.179E-11
         2100.,   7.206E-11
         2102.,   7.096E-11
         2105.,   7.818E-11
         2107.,   7.557E-11
         2110.,   7.384E-11
         2112.,   7.962E-11
         2115.,   8.806E-11
         2118.,   1.002E-10
         2120.,   9.832E-11
         2122.,   7.799E-11
         2125.,   7.107E-11
         2128.,   8.161E-11
         2130.,   8.436E-11
         2133.,   8.186E-11
         2135.,   8.347E-11
         2138.,   8.767E-11
         2140.,   9.773E-11
         2142.,   1.130E-10
         2145.,   1.144E-10
         2147.,   1.047E-10
         2150.,   1.026E-10
         2153.,   1.057E-10
         2155.,   1.010E-10
         2157.,   8.754E-11
         2160.,   8.968E-11
         2162.,   9.906E-11
         2165.,   8.956E-11
         2168.,   8.026E-11
         2170.,   8.650E-11
         2173.,   9.067E-11
         2175.,   8.761E-11
         2177.,   9.905E-11
         2180.,   1.238E-10
         2182.,   1.307E-10
         2185.,   1.158E-10
         2187.,   1.041E-10
         2190.,   1.112E-10
         2193.,   1.251E-10
         2195.,   1.271E-10
         2198.,   1.252E-10
         2200.,   1.290E-10
         2202.,   1.392E-10
         2205.,   1.343E-10
         2208.,   1.066E-10
         2210.,   9.100E-11
         2213.,   9.862E-11
         2215.,   1.014E-10
         2218.,   1.032E-10
         2220.,   1.221E-10
         2222.,   1.334E-10
         2225.,   1.286E-10
         2227.,   1.273E-10
         2230.,   1.398E-10
         2233.,   1.681E-10
         2235.,   1.830E-10
         2237.,   1.689E-10
         2240.,   1.527E-10
         2242.,   1.411E-10
         2245.,   1.450E-10
         2248.,   1.555E-10
         2250.,   1.480E-10
         2253.,   1.372E-10
         2255.,   1.317E-10
         2257.,   1.284E-10
         2260.,   1.238E-10
         2262.,   1.138E-10
         2265.,   9.880E-11
         2267.,   8.716E-11
         2270.,   8.452E-11
         2273.,   9.001E-11
         2275.,   9.893E-11
         2277.,   1.104E-10
         2280.,   1.283E-10
         2282.,   1.411E-10
         2285.,   1.366E-10
         2288.,   1.246E-10
         2290.,   1.192E-10
         2293.,   1.239E-10
         2295.,   1.250E-10
         2298.,   1.110E-10
         2300.,   1.047E-10
         2302.,   1.195E-10
         2305.,   1.453E-10
         2307.,   1.500E-10
         2310.,   1.205E-10
         2313.,   1.083E-10
         2315.,   1.268E-10
         2317.,   1.310E-10
         2320.,   1.253E-10
         2322.,   1.373E-10
         2325.,   1.365E-10
         2327.,   1.250E-10
         2330.,   1.188E-10
         2333.,   1.132E-10
         2335.,   1.144E-10
         2337.,   1.066E-10
         2340.,   1.010E-10
         2342.,   9.406E-11
         2345.,   8.424E-11
         2347.,   9.436E-11
         2350.,   1.200E-10
         2353.,   1.373E-10
         2355.,   1.401E-10
         2357.,   1.309E-10
         2360.,   1.167E-10
         2362.,   1.150E-10
         2365.,   1.133E-10
         2368.,   1.165E-10
         2370.,   1.322E-10
         2373.,   1.299E-10
         2375.,   1.229E-10
         2377.,   1.200E-10
         2380.,   9.857E-11
         2383.,   8.695E-11
         2385.,   1.002E-10
         2387.,   1.107E-10
         2390.,   1.211E-10
         2393.,   1.214E-10
         2395.,   1.028E-10
         2397.,   9.711E-11
         2400.,   1.070E-10
         2403.,   1.097E-10
         2405.,   9.132E-11
         2407.,   9.721E-11
         2410.,   9.624E-11
         2413.,   9.796E-11
         2415.,   1.202E-10
         2417.,   1.465E-10
         2420.,   1.671E-10
         2423.,   1.707E-10
         2425.,   1.655E-10
         2427.,   1.731E-10
         2430.,   1.680E-10
         2433.,   1.578E-10
         2435.,   1.472E-10
         2437.,   1.496E-10
         2440.,   1.574E-10
         2443.,   1.623E-10
         2445.,   1.502E-10
         2448.,   1.334E-10
         2450.,   1.217E-10
         2452.,   1.162E-10
         2455.,   1.183E-10
         2457.,   1.229E-10
         2460.,   1.173E-10
         2463.,   1.095E-10
         2465.,   1.180E-10
         2467.,   1.293E-10
         2470.,   1.332E-10
         2473.,   1.328E-10
         2475.,   1.396E-10
         2477.,   1.321E-10
         2480.,   1.220E-10
         2483.,   1.089E-10
         2485.,   1.065E-10
         2487.,   1.026E-10
         2490.,   8.989E-11
         2493.,   1.170E-10
         2495.,   1.504E-10
         2497.,   1.560E-10
         2500.,   1.475E-10
         2502.,   1.442E-10
         2505.,   1.320E-10
         2507.,   1.285E-10
         2510.,   1.343E-10
         2513.,   1.163E-10
         2515.,   9.690E-11
         2518.,   9.665E-11
         2520.,   1.054E-10
         2522.,   1.006E-10
         2525.,   1.012E-10
         2527.,   9.932E-11
         2530.,   1.088E-10
         2532.,   1.274E-10
         2535.,   1.281E-10
         2538.,   1.284E-10
         2540.,   1.336E-10
         2542.,   1.408E-10
         2545.,   1.440E-10
         2548.,   1.352E-10
         2550.,   1.505E-10
         2552.,   1.895E-10
         2555.,   1.986E-10
         2558.,   2.011E-10
         2560.,   2.114E-10
         2562.,   1.938E-10
         2565.,   2.174E-10
         2567.,   2.704E-10
         2570.,   3.017E-10
         2573.,   3.046E-10
         2575.,   2.481E-10
         2577.,   2.596E-10
         2580.,   3.462E-10
         2582.,   3.267E-10
         2585.,   2.366E-10
         2587.,   2.672E-10
         2590.,   3.307E-10
         2593.,   2.748E-10
         2595.,   2.394E-10
         2598.,   1.896E-10
         2600.,   1.749E-10
         2602.,   2.374E-10
         2605.,   2.151E-10
         2607.,   1.884E-10
         2610.,   1.991E-10
         2612.,   1.746E-10
         2615.,   2.065E-10
         2618.,   2.404E-10
         2620.,   2.588E-10
         2622.,   2.740E-10
         2625.,   2.583E-10
         2627.,   2.230E-10
         2630.,   1.996E-10
         2633.,   2.341E-10
         2635.,   3.477E-10
         2638.,   4.792E-10
         2640.,   5.644E-10
         2642.,   6.071E-10
         2645.,   6.129E-10
         2647.,   5.073E-10
         2650.,   4.565E-10
         2652.,   5.344E-10
         2655.,   6.208E-10
         2657.,   6.149E-10
         2660.,   5.708E-10
         2662.,   5.253E-10
         2665.,   5.276E-10
         2667.,   5.367E-10
         2670.,   5.352E-10
         2673.,   5.393E-10
         2675.,   5.974E-10
         2677.,   5.476E-10
         2680.,   5.281E-10
         2682.,   5.426E-10
         2685.,   5.483E-10
         2687.,   5.232E-10
         2690.,   4.960E-10
         2692.,   5.229E-10
         2695.,   4.916E-10
         2698.,   5.134E-10
         2700.,   5.939E-10
         2702.,   6.237E-10
         2705.,   6.233E-10
         2707.,   5.753E-10
         2710.,   5.538E-10
         2713.,   5.493E-10
         2715.,   4.974E-10
         2718.,   4.078E-10
         2720.,   3.388E-10
         2722.,   3.850E-10
         2725.,   4.211E-10
         2727.,   4.984E-10
         2730.,   5.631E-10
         2732.,   4.913E-10
         2735.,   4.047E-10
         2737.,   3.406E-10
         2740.,   2.988E-10
         2742.,   2.780E-10
         2745.,   2.854E-10
         2747.,   2.738E-10
         2750.,   3.139E-10
         2753.,   3.859E-10
         2755.,   3.551E-10
         2758.,   4.549E-10
         2760.,   5.295E-10
         2762.,   5.158E-10
         2765.,   5.545E-10
         2767.,   5.259E-10
         2770.,   5.232E-10
         2772.,   5.566E-10
         2775.,   5.237E-10
         2778.,   4.326E-10
         2780.,   3.709E-10
         2782.,   3.604E-10
         2785.,   3.630E-10
         2787.,   3.238E-10
         2790.,   2.488E-10
         2793.,   1.955E-10
         2795.,   1.738E-10
         2798.,   1.628E-10
         2800.,   1.682E-10
         2802.,   1.784E-10
         2805.,   2.065E-10
         2807.,   2.832E-10
         2810.,   3.491E-10
         2812.,   4.104E-10
         2815.,   4.846E-10
         2817.,   5.314E-10
         2820.,   5.782E-10
         2823.,   6.151E-10
         2825.,   6.318E-10
         2827.,   6.337E-10
         2830.,   6.905E-10
         2833.,   6.994E-10
         2835.,   6.506E-10
         2838.,   6.519E-10
         2840.,   6.780E-10
         2842.,   6.072E-10
         2845.,   5.294E-10
         2847.,   3.942E-10
         2850.,   2.327E-10
         2852.,   1.973E-10
         2855.,   3.048E-10
         2858.,   4.686E-10
         2860.,   6.354E-10
         2862.,   7.129E-10
         2865.,   7.359E-10
         2867.,   6.966E-10
         2870.,   7.388E-10
         2873.,   8.204E-10
         2875.,   7.536E-10
         2878.,   6.629E-10
         2880.,   4.708E-10
         2883.,   5.032E-10
         2885.,   7.570E-10
         2887.,   8.353E-10
         2890.,   8.330E-10
         2892.,   8.613E-10
         2895.,   9.727E-10
         2898.,    1.103E-9
         2900.,    1.219E-9
         2903.,    1.277E-9
         2905.,    1.272E-9
         2907.,    1.187E-9
         2910.,    1.194E-9
         2913.,    1.241E-9
         2915.,    1.152E-9
         2918.,    1.123E-9
         2920.,    1.144E-9
         2923.,    1.059E-9
         2925.,   9.591E-10
         2927.,   9.804E-10
         2930.,    1.166E-9
         2932.,    1.255E-9
         2935.,    1.120E-9
         2938.,   9.485E-10
         2940.,    1.011E-9
         2942.,    1.104E-9
         2945.,    1.096E-9
         2948.,   9.371E-10
         2950.,    1.022E-9
         2952.,    1.141E-9
         2955.,    1.120E-9
         2958.,    1.174E-9
         2960.,    1.231E-9
         2963.,    1.222E-9
         2965.,   9.658E-10
         2967.,   7.978E-10
         2970.,   8.529E-10
         2972.,   9.330E-10
         2975.,    1.144E-9
         2978.,    1.322E-9
         2980.,    1.108E-9
         2983.,   7.895E-10
         2985.,   7.040E-10
         2987.,   9.251E-10
         2990.,    1.166E-9
         2993.,    1.065E-9
         2995.,   9.547E-10
         2998.,    1.015E-9
         3000.,   7.150E-10
         3003.,   7.452E-10
         3005.,   8.948E-10
         3007.,   8.380E-10
         3010.,   9.499E-10
         3012.,    1.052E-9
         3015.,    1.016E-9
         3018.,   8.008E-10
         3020.,   6.251E-10
         3023.,   8.466E-10
         3025.,    1.026E-9
         3027.,    1.204E-9
         3030.,    1.254E-9
         3032.,    1.337E-9
         3035.,    1.320E-9
         3038.,    1.104E-9
         3040.,    1.075E-9
         3043.,    1.165E-9
         3045.,    1.248E-9
         3048.,    1.127E-9
         3050.,    1.293E-9
         3052.,    1.347E-9
         3055.,    1.118E-9
         3058.,   8.783E-10
         3060.,    1.007E-9
         3063.,    1.151E-9
         3065.,    1.015E-9
         3067.,    1.083E-9
         3070.,    1.238E-9
         3073.,    1.189E-9
         3075.,    1.164E-9
         3077.,    1.196E-9
         3080.,    1.147E-9
         3083.,    1.141E-9
         3085.,    1.262E-9
         3087.,    1.146E-9
         3090.,   9.749E-10
         3092.,   8.483E-10
         3095.,   9.099E-10
         3098.,   8.744E-10
         3100.,   8.697E-10
         3103.,   9.583E-10
         3105.,    1.048E-9
         3107.,    1.138E-9
         3110.,    1.228E-9
         3112.,    1.300E-9
         3115.,    1.300E-9
         3118.,    1.271E-9
         3120.,    1.224E-9
         3123.,    1.208E-9
         3125.,    1.206E-9
         3127.,    1.224E-9
         3130.,    1.241E-9
         3132.,    1.255E-9
         3135.,    1.258E-9
         3138.,    1.262E-9
         3140.,    1.268E-9
         3143.,    1.248E-9
         3145.,    1.246E-9
         3147.,    1.270E-9
         3150.,    1.282E-9
         3152.,    1.288E-9
         3155.,    1.280E-9
         3157.,    1.225E-9
         3160.,    1.137E-9
         3163.,    1.117E-9
         3165.,    1.136E-9
         3167.,    1.211E-9
         3170.,    1.323E-9
         3173.,    1.424E-9
         3175.,    1.445E-9
         3177.,    1.407E-9
         3180.,    1.328E-9
         3183.,    1.265E-9
         3185.,    1.239E-9
         3187.,    1.268E-9
         3190.,    1.303E-9
         3192.,    1.335E-9
         3195.,    1.351E-9
         3198.,    1.352E-9
         3200.,    1.343E-9
         3202.,    1.333E-9
         3205.,    1.323E-9
         3208.,    1.313E-9
         3210.,    1.302E-9
         3212.,    1.292E-9
         3215.,    1.282E-9
         3217.,    1.272E-9
         3220.,    1.262E-9
         3223.,    1.296E-9
         3225.,    1.331E-9
         3227.,    1.366E-9
         3230.,    1.401E-9
         3233.,    1.435E-9
         3235.,    1.470E-9
         3237.,    1.505E-9
         3240.,    1.539E-9
         3260.,    1.588E-9
         3270.,    1.608E-9
         3280.,    1.573E-9
         3290.,    1.638E-9
         3300.,    1.746E-9
         3310.,    1.600E-9
         3320.,    1.575E-9
         3330.,    1.551E-9
         3340.,    1.590E-9
         3350.,    1.582E-9
         3360.,    1.489E-9
         3370.,    1.455E-9
         3380.,    1.568E-9
         3390.,    1.632E-9
         3400.,    1.697E-9
         3410.,    1.660E-9
         3420.,    1.660E-9
         3430.,    1.734E-9
         3440.,    1.495E-9
         3450.,    1.484E-9
         3460.,    1.676E-9
         3470.,    1.586E-9
         3480.,    1.600E-9
         3490.,    1.626E-9
         3500.,    1.774E-9
         3510.,    1.857E-9
         3520.,    1.608E-9
         3530.,    1.721E-9
         3540.,    1.974E-9
         3550.,    1.856E-9
         3560.,    1.682E-9
         3570.,    1.471E-9
         3580.,    1.257E-9
         3590.,    1.502E-9
         3600.,    1.821E-9
         3610.,    1.622E-9
         3620.,    1.767E-9
         3630.,    1.812E-9
         3640.,    1.723E-9
         3650.,    1.944E-9
         3660.,    2.136E-9
         3670.,    2.103E-9
         3680.,    1.967E-9
         3690.,    2.105E-9
         3700.,    2.103E-9
         3710.,    1.903E-9
         3720.,    1.971E-9
         3730.,    1.578E-9
         3740.,    1.359E-9
         3750.,    1.613E-9
         3760.,    1.827E-9
         3770.,    2.028E-9
         3780.,    2.240E-9
         3790.,    1.958E-9
         3800.,    1.979E-9
         3810.,    1.887E-9
         3820.,    1.331E-9
         3830.,    1.042E-9
         3840.,    1.350E-9
         3850.,    1.532E-9
         3860.,    1.443E-9
         3870.,    1.515E-9
         3880.,    1.514E-9
         3890.,    1.834E-9
         3900.,    2.044E-9
         3910.,    2.189E-9
         3920.,    1.921E-9
         3930.,    1.314E-9
         3940.,    1.526E-9
         3950.,    2.153E-9
         3960.,    1.765E-9
         3970.,    1.658E-9
         3980.,    2.666E-9
         3990.,    3.039E-9
         4000.,    3.120E-9
         4010.,    3.255E-9
         4020.,    3.377E-9
         4030.,    3.371E-9
         4040.,    3.269E-9
         4050.,    3.302E-9
         4060.,    3.235E-9
         4070.,    3.157E-9
         4080.,    3.390E-9
         4090.,    3.466E-9
         4100.,    3.274E-9
         4110.,    3.433E-9
         4120.,    3.519E-9
         4130.,    3.371E-9
         4140.,    3.359E-9
         4150.,    3.230E-9
         4160.,    3.327E-9
         4170.,    3.266E-9
         4180.,    3.232E-9
         4190.,    3.146E-9
         4200.,    3.313E-9
         4210.,    3.479E-9
         4220.,    3.191E-9
         4230.,    3.092E-9
         4240.,    3.269E-9
         4250.,    3.197E-9
         4260.,    3.233E-9
         4270.,    3.103E-9
         4280.,    3.067E-9
         4290.,    2.894E-9
         4300.,    2.388E-9
         4310.,    2.960E-9
         4320.,    3.460E-9
         4330.,    3.266E-9
         4340.,    3.459E-9
         4350.,    3.505E-9
         4360.,    3.585E-9
         4370.,    3.495E-9
         4380.,    3.186E-9
         4390.,    3.267E-9
         4400.,    3.482E-9
         4410.,    3.545E-9
         4420.,    3.772E-9
         4430.,    3.729E-9
         4440.,    3.756E-9
         4450.,    3.661E-9
         4460.,    3.659E-9
         4470.,    3.938E-9
         4480.,    3.984E-9
         4490.,    4.027E-9
         4500.,    4.108E-9
         4510.,    4.202E-9
         4520.,    3.938E-9
         4530.,    3.884E-9
         4540.,    3.882E-9
         4550.,    4.055E-9
         4560.,    4.127E-9
         4570.,    4.052E-9
         4580.,    4.027E-9
         4590.,    3.919E-9
         4600.,    3.985E-9
         4610.,    4.086E-9
         4620.,    4.127E-9
         4630.,    4.079E-9
         4640.,    3.985E-9
         4650.,    3.965E-9
         4660.,    3.926E-9
         4670.,    3.879E-9
         4680.,    3.927E-9
         4690.,    3.915E-9
         4700.,    3.837E-9
         4710.,    3.881E-9
         4720.,    4.012E-9
         4730.,    4.018E-9
         4740.,    4.090E-9
         4750.,    4.083E-9
         4760.,    4.014E-9
         4770.,    4.105E-9
         4780.,    4.137E-9
         4790.,    4.169E-9
         4800.,    4.197E-9
         4810.,    4.197E-9
         4820.,    4.216E-9
         4830.,    4.106E-9
         4840.,    4.127E-9
         4850.,    3.908E-9
         4860.,    3.645E-9
         4870.,    3.766E-9
         4880.,    3.878E-9
         4890.,    3.847E-9
         4900.,    3.964E-9
         4910.,    3.791E-9
         4920.,    3.833E-9
         4930.,    3.921E-9
         4940.,    3.963E-9
         4950.,    3.963E-9
         4960.,    3.924E-9
         4970.,    3.937E-9
         4980.,    3.881E-9
         4990.,    3.809E-9
         5000.,    3.789E-9
         5010.,    3.696E-9
         5020.,    3.705E-9
         5030.,    3.820E-9
         5040.,    3.770E-9
         5050.,    3.812E-9
         5060.,    3.833E-9
         5070.,    3.693E-9
         5080.,    3.634E-9
         5090.,    3.667E-9
         5100.,    3.586E-9
         5110.,    3.633E-9
         5120.,    3.637E-9
         5130.,    3.509E-9
         5140.,    3.515E-9
         5150.,    3.559E-9
         5160.,    3.276E-9
         5170.,    3.031E-9
         5180.,    3.025E-9
         5190.,    3.272E-9
         5200.,    3.466E-9
         5210.,    3.511E-9
         5220.,    3.545E-9
         5230.,    3.521E-9
         5240.,    3.654E-9
         5250.,    3.702E-9
         5260.,    3.417E-9
         5270.,    3.370E-9
         5280.,    3.657E-9
         5290.,    3.699E-9
         5300.,    3.763E-9
         5310.,    3.815E-9
         5320.,    3.620E-9
         5330.,    3.574E-9
         5340.,    3.652E-9
         5350.,    3.689E-9
         5360.,    3.724E-9
         5370.,    3.628E-9
         5380.,    3.683E-9
         5390.,    3.596E-9
         5400.,    3.509E-9
         5410.,    3.562E-9
         5420.,    3.734E-9
         5430.,    3.690E-9
         5440.,    3.740E-9
         5450.,    3.778E-9
         5460.,    3.742E-9
         5470.,    3.703E-9
         5480.,    3.643E-9
         5490.,    3.690E-9
         5500.,    3.684E-9
         5510.,    3.664E-9
         5520.,    3.694E-9
         5530.,    3.692E-9
         5540.,    3.667E-9
         5550.,    3.726E-9
         5560.,    3.677E-9
         5570.,    3.657E-9
         5580.,    3.619E-9
         5590.,    3.595E-9
         5600.,    3.593E-9
         5610.,    3.661E-9
         5620.,    3.683E-9
         5630.,    3.704E-9
         5640.,    3.715E-9
         5650.,    3.689E-9
         5660.,    3.682E-9
         5670.,    3.687E-9
         5680.,    3.742E-9
         5690.,    3.688E-9
         5700.,    3.706E-9
         5710.,    3.615E-9
         5720.,    3.700E-9
         5730.,    3.778E-9
         5740.,    3.802E-9
         5760.,    3.775E-9
         5780.,    3.730E-9
         5800.,    3.783E-9
         5820.,    3.822E-9
         5840.,    3.779E-9
         5860.,    3.715E-9
         5880.,    3.540E-9
         5900.,    3.554E-9
         5920.,    3.662E-9
         5940.,    3.660E-9
         5960.,    3.675E-9
         5980.,    3.667E-9
         6000.,    3.596E-9
         6020.,    3.572E-9
         6040.,    3.576E-9
         6060.,    3.634E-9
         6080.,    3.514E-9
         6100.,    3.420E-9
         6120.,    3.445E-9
         6140.,    3.519E-9
         6160.,    3.496E-9
         6180.,    3.505E-9
         6200.,    3.578E-9
         6220.,    3.543E-9
         6240.,    3.512E-9
         6260.,    3.487E-9
         6280.,    3.493E-9
         6300.,    3.448E-9
         6320.,    3.443E-9
         6340.,    3.441E-9
         6360.,    3.443E-9
         6380.,    3.384E-9
         6400.,    3.298E-9
         6420.,    3.345E-9
         6440.,    3.353E-9
         6460.,    3.332E-9
         6480.,    3.272E-9
         6500.,    3.284E-9
         6520.,    3.336E-9
         6540.,    3.270E-9
         6560.,    3.157E-9
         6580.,    3.245E-9
         6600.,    3.304E-9
         6620.,    3.304E-9
         6640.,    3.284E-9
         6660.,    3.277E-9
         6680.,    3.213E-9
         6700.,    3.243E-9
         6720.,    3.234E-9
         6740.,    3.178E-9
         6760.,    3.154E-9
         6780.,    3.184E-9
         6800.,    3.158E-9
         6820.,    3.223E-9
         6840.,    3.213E-9
         6860.,    3.068E-9
         6880.,    2.994E-9
         6900.,    3.102E-9
         6920.,    3.070E-9
         6940.,    3.105E-9
         6960.,    3.110E-9
         6980.,    3.102E-9
         7000.,    3.084E-9
         7020.,    3.055E-9
         7040.,    3.060E-9
         7060.,    3.087E-9
         7080.,    3.074E-9
         7100.,    3.026E-9
         7120.,    3.005E-9
         7140.,    3.007E-9
         7160.,    3.049E-9
         7180.,    2.987E-9
         7200.,    2.932E-9
         7220.,    2.911E-9
         7240.,    2.936E-9
         7260.,    2.913E-9
         7280.,    2.903E-9
         7300.,    2.917E-9
         7320.,    2.909E-9
         7340.,    2.903E-9
         7360.,    2.900E-9
         7380.,    2.851E-9
         7400.,    2.822E-9
         7420.,    2.829E-9
         7440.,    2.832E-9
         7460.,    2.827E-9
         7480.,    2.754E-9
         7500.,    2.743E-9
         7520.,    2.739E-9
         7540.,    2.732E-9
         7560.,    2.742E-9
         7580.,    2.724E-9
         7600.,    2.366E-9
         7620.,    2.427E-9
         7640.,    2.562E-9
         7660.,    2.649E-9
         7680.,    2.515E-9
         7700.,    2.577E-9
         7720.,    2.612E-9
         7740.,    2.622E-9
         7760.,    2.546E-9
         7780.,    2.655E-9
         7800.,    2.644E-9
         7820.,    2.603E-9
         7840.,    2.627E-9
         7860.,    2.636E-9
         7880.,    2.606E-9
         7900.,    2.563E-9
         7920.,    2.580E-9
         7940.,    2.544E-9
         7960.,    2.575E-9
         7980.,    2.586E-9
         8000.,    2.541E-9
         8020.,    2.571E-9
         8040.,    2.532E-9
         8060.,    2.522E-9
         8080.,    2.523E-9
         8100.,    2.477E-9
         8120.,    2.530E-9
         8140.,    2.506E-9
         8160.,    2.450E-9
         8180.,    2.414E-9
         8200.,    2.379E-9
         8220.,    2.341E-9
         8240.,    2.374E-9
         8260.,    2.446E-9
         8280.,    2.404E-9
         8300.,    2.375E-9
         8320.,    2.311E-9
         8340.,    2.323E-9
         8360.,    2.312E-9
         8380.,    2.352E-9
         8400.,    2.297E-9
         8420.,    2.304E-9
         8440.,    2.283E-9
         8460.,    2.263E-9
         8480.,    2.255E-9
         8500.,    2.203E-9
         8520.,    2.121E-9
         8540.,    2.089E-9
         8560.,    2.145E-9
         8580.,    2.236E-9
         8600.,    2.266E-9
         8620.,    2.190E-9
         8640.,    2.120E-9
         8660.,    2.046E-9
         8680.,    2.097E-9
         8700.,    2.177E-9
         8720.,    2.165E-9
         8740.,    2.146E-9
         8760.,    2.138E-9
         8780.,    2.082E-9
         8800.,    2.097E-9
         8820.,    2.075E-9
         8840.,    2.127E-9
         8860.,    2.123E-9
         8880.,    2.072E-9
         8900.,    2.047E-9
         8920.,    2.017E-9
         8940.,    2.070E-9
         8960.,    2.065E-9
         8980.,    2.012E-9
         9000.,    1.968E-9
         9020.,    2.041E-9
         9040.,    2.072E-9
         9060.,    2.008E-9
         9080.,    1.968E-9
         9100.,    2.013E-9
         9120.,    2.016E-9
         9140.,    1.949E-9
         9160.,    1.908E-9
         9180.,    1.898E-9
         9200.,    1.941E-9
         9220.,    1.914E-9
         9240.,    1.855E-9
         9260.,    1.803E-9
         9280.,    1.794E-9
         9300.,    1.714E-9
         9320.,    1.700E-9
         9340.,    1.782E-9
         9360.,    1.624E-9
         9380.,    1.740E-9
         9400.,    1.923E-9
         9420.,    1.677E-9
         9440.,    1.562E-9
         9460.,    1.716E-9
         9480.,    1.701E-9
         9500.,    1.720E-9
         9520.,    1.748E-9
         9540.,    1.698E-9
         9560.,    1.661E-9
         9580.,    1.709E-9
         9600.,    1.708E-9
         9620.,    1.732E-9
         9640.,    1.694E-9
         9660.,    1.789E-9
         9680.,    1.755E-9
         9700.,    1.783E-9
         9720.,    1.756E-9
         9740.,    1.700E-9
         9760.,    1.714E-9
         9780.,    1.692E-9
         9800.,    1.703E-9
         9820.,    1.691E-9
         9840.,    1.723E-9
         9860.,    1.691E-9
         9880.,    1.667E-9
         9900.,    1.636E-9
         9920.,    1.640E-9
         9940.,    1.631E-9
         9960.,    1.669E-9
         9980.,    1.655E-9
        10000.,    1.665E-9
        10020.,    1.673E-9
        10040.,    1.606E-9
        10060.,    1.642E-9
        10080.,    1.629E-9
        10100.,    1.661E-9
        10120.,    1.595E-9
        10140.,    1.596E-9
        10160.,    1.603E-9
        10180.,    1.565E-9
        10200.,    1.563E-9
        10220.,    1.556E-9
        10240.,    1.563E-9
        10260.,    1.579E-9
        10280.,    1.534E-9
        10300.,    1.527E-9
        10320.,    1.521E-9
        10340.,    1.540E-9
        10360.,    1.501E-9
        10380.,    1.561E-9
        10400.,    1.538E-9
        10420.,    1.505E-9
        10440.,    1.519E-9
        10460.,    1.483E-9
        10480.,    1.482E-9
        10500.,    1.543E-9
        10520.,    1.491E-9
        10540.,    1.487E-9
        10560.,    1.494E-9
        10580.,    1.434E-9
        10600.,    1.463E-9
        10800.,    1.394E-9
        11000.,    1.323E-9
        11200.,    1.252E-9
        11400.,    1.184E-9
        11600.,    1.119E-9
        11800.,    1.060E-9
        12000.,    1.006E-9
        12200.,   9.578E-10
        12400.,   9.168E-10
        12600.,   8.834E-10
        12800.,   8.529E-10
        13000.,   8.199E-10
        13200.,   7.925E-10
        13400.,   7.663E-10
        13600.,   7.400E-10
        13800.,   7.112E-10
        14000.,   6.840E-10
        14200.,   6.608E-10
        14400.,   6.389E-10
        14600.,   6.171E-10
        14800.,   5.940E-10
        15000.,   5.733E-10
        15200.,   5.541E-10
        15400.,   5.354E-10
        15600.,   5.179E-10
        15800.,   5.020E-10
        16000.,   4.884E-10
        16200.,   4.764E-10
        16400.,   4.601E-10
        16600.,   4.409E-10
        16800.,   4.258E-10
        17000.,   4.090E-10
        17200.,   3.914E-10
        17400.,   3.761E-10
        17600.,   3.615E-10
        17800.,   3.468E-10
        18000.,   3.334E-10
        18200.,   3.224E-10
        18400.,   3.112E-10
        18600.,   2.993E-10
        18800.,   2.887E-10
        19000.,   2.793E-10
        19200.,   2.684E-10
        19400.,   2.596E-10
        19600.,   2.509E-10
        19800.,   2.421E-10
        20000.,   2.340E-10
        20200.,   2.271E-10
        20400.,   2.190E-10
        20600.,   2.112E-10
        20800.,   2.037E-10
        21000.,   1.955E-10
        21200.,   1.887E-10
        21400.,   1.827E-10
        21600.,   1.758E-10
        21800.,   1.698E-10
        22000.,   1.651E-10
        22200.,   1.601E-10
        22400.,   1.552E-10
        22600.,   1.502E-10
        22800.,   1.454E-10
        23000.,   1.410E-10
        23200.,   1.367E-10
        23400.,   1.326E-10
        23600.,   1.286E-10
        23800.,   1.239E-10
        24000.,   1.204E-10
        24200.,   1.171E-10
        24400.,   1.136E-10
        24600.,   1.100E-10
        24800.,   1.073E-10
        25000.,   1.041E-10
        25200.,   1.013E-10
        25400.,   9.838E-11
        25600.,   9.563E-11
