wavelength, flux
          229.,          0.
          234.,          0.
          243.,          0.
          252.,          0.
          256.,          0.
          260.,          0.
          266.,          0.
          275.,          0.
          283.,          0.
          293.,          0.
          301.,          0.
          309.,          0.
          325.,          0.
          342.,          0.
          351.,          0.
          356.,          0.
          365.,          0.
          375.,          0.
          384.,          0.
          400.,          0.
          415.,          0.
          425.,          0.
          445.,          0.
          472.,          0.
          494.,          0.
          506.,          0.
          516.,          0.
          540.,          0.
          564.,          0.
          587.,          0.
          612.,          0.
          640.,          0.
          671.,          0.
          705.,          0.
          736.,          0.
          770.,          0.
          810.,          0.
          850.,          0.
          890.,          0.
          920.,   2.461E-21
          940.,   8.316E-21
          962.,   1.770E-20
          987.,   3.970E-20
         1012.,   8.081E-20
         1037.,   1.521E-19
         1062.,   2.944E-19
         1087.,   5.479E-19
         1112.,   8.970E-18
         1120.,   1.104E-17
         1140.,   1.597E-17
         1160.,   2.524E-17
         1180.,   3.644E-17
         1200.,   5.123E-17
         1220.,   7.573E-17
         1240.,   1.155E-16
         1260.,   1.659E-16
         1280.,   2.271E-16
         1300.,   3.142E-16
         1320.,   4.172E-16
         1340.,   5.381E-16
         1360.,   6.992E-16
         1380.,   9.230E-16
         1400.,   1.217E-15
         1420.,   1.584E-15
         1440.,   2.059E-15
         1460.,   2.684E-15
         1480.,   3.429E-15
         1500.,   4.447E-15
         1520.,   3.617E-14
         1540.,   6.503E-14
         1560.,   6.766E-14
         1580.,   8.656E-14
         1600.,   1.121E-13
         1620.,   1.377E-13
         1640.,   1.604E-13
         1660.,   1.755E-13
         1680.,   2.256E-12
         1700.,   3.440E-12
         1720.,   4.294E-12
         1740.,   5.659E-12
         1760.,   5.577E-12
         1780.,   7.726E-12
         1800.,   7.321E-12
         1820.,   5.946E-12
         1840.,   6.191E-12
         1860.,   7.965E-12
         1880.,   9.184E-12
         1900.,   1.072E-11
         1920.,   1.282E-11
         1940.,   1.137E-11
         1960.,   1.148E-11
         1980.,   1.622E-11
         2000.,   1.703E-11
         2002.,   1.798E-11
         2005.,   2.232E-11
         2008.,   2.384E-11
         2010.,   2.463E-11
         2012.,   2.483E-11
         2015.,   2.492E-11
         2018.,   2.451E-11
         2020.,   2.437E-11
         2022.,   2.443E-11
         2025.,   2.443E-11
         2027.,   2.441E-11
         2030.,   2.545E-11
         2032.,   2.705E-11
         2035.,   2.972E-11
         2038.,   3.147E-11
         2040.,   3.259E-11
         2042.,   3.334E-11
         2045.,   3.377E-11
         2048.,   3.442E-11
         2050.,   3.492E-11
         2052.,   3.507E-11
         2055.,   3.508E-11
         2058.,   3.469E-11
         2060.,   3.523E-11
         2062.,   3.634E-11
         2065.,   3.843E-11
         2067.,   4.052E-11
         2070.,   4.143E-11
         2072.,   4.260E-11
         2075.,   4.434E-11
         2077.,   4.661E-11
         2080.,   4.913E-11
         2082.,   5.236E-11
         2085.,   5.607E-11
         2088.,   5.581E-11
         2090.,   5.617E-11
         2092.,   5.743E-11
         2095.,   5.836E-11
         2098.,   5.859E-11
         2100.,   5.881E-11
         2102.,   5.791E-11
         2105.,   6.380E-11
         2107.,   6.167E-11
         2110.,   6.026E-11
         2112.,   6.497E-11
         2115.,   7.187E-11
         2118.,   8.181E-11
         2120.,   8.024E-11
         2122.,   6.365E-11
         2125.,   5.799E-11
         2128.,   6.660E-11
         2130.,   6.885E-11
         2133.,   6.681E-11
         2135.,   6.812E-11
         2138.,   7.154E-11
         2140.,   7.976E-11
         2142.,   9.220E-11
         2145.,   9.333E-11
         2147.,   8.547E-11
         2150.,   8.376E-11
         2153.,   8.627E-11
         2155.,   8.241E-11
         2157.,   7.144E-11
         2160.,   7.319E-11
         2162.,   8.085E-11
         2165.,   7.309E-11
         2168.,   6.550E-11
         2170.,   7.059E-11
         2173.,   7.399E-11
         2175.,   7.150E-11
         2177.,   8.083E-11
         2180.,   1.011E-10
         2182.,   1.067E-10
         2185.,   9.450E-11
         2187.,   8.492E-11
         2190.,   9.076E-11
         2193.,   1.021E-10
         2195.,   1.038E-10
         2198.,   1.022E-10
         2200.,   1.053E-10
         2202.,   1.136E-10
         2205.,   1.096E-10
         2208.,   8.700E-11
         2210.,   7.427E-11
         2213.,   8.048E-11
         2215.,   8.275E-11
         2218.,   8.423E-11
         2220.,   9.965E-11
         2222.,   1.089E-10
         2225.,   1.049E-10
         2227.,   1.039E-10
         2230.,   1.141E-10
         2233.,   1.372E-10
         2235.,   1.494E-10
         2237.,   1.379E-10
         2240.,   1.247E-10
         2242.,   1.152E-10
         2245.,   1.183E-10
         2248.,   1.269E-10
         2250.,   1.208E-10
         2253.,   1.119E-10
         2255.,   1.075E-10
         2257.,   1.048E-10
         2260.,   1.011E-10
         2262.,   9.284E-11
         2265.,   8.063E-11
         2267.,   7.113E-11
         2270.,   6.897E-11
         2273.,   7.346E-11
         2275.,   8.073E-11
         2277.,   9.007E-11
         2280.,   1.047E-10
         2282.,   1.151E-10
         2285.,   1.115E-10
         2288.,   1.017E-10
         2290.,   9.725E-11
         2293.,   1.011E-10
         2295.,   1.020E-10
         2298.,   9.061E-11
         2300.,   8.542E-11
         2302.,   9.753E-11
         2305.,   1.186E-10
         2307.,   1.224E-10
         2310.,   9.837E-11
         2313.,   8.842E-11
         2315.,   1.035E-10
         2317.,   1.069E-10
         2320.,   1.022E-10
         2322.,   1.120E-10
         2325.,   1.114E-10
         2327.,   1.020E-10
         2330.,   9.692E-11
         2333.,   9.237E-11
         2335.,   9.339E-11
         2337.,   8.701E-11
         2340.,   8.246E-11
         2342.,   7.676E-11
         2345.,   6.875E-11
         2347.,   7.701E-11
         2350.,   9.792E-11
         2353.,   1.120E-10
         2355.,   1.142E-10
         2357.,   1.068E-10
         2360.,   9.527E-11
         2362.,   9.387E-11
         2365.,   9.246E-11
         2368.,   9.508E-11
         2370.,   1.079E-10
         2373.,   1.060E-10
         2375.,   1.003E-10
         2377.,   9.793E-11
         2380.,   8.044E-11
         2383.,   7.096E-11
         2385.,   8.179E-11
         2387.,   9.035E-11
         2390.,   9.883E-11
         2393.,   9.910E-11
         2395.,   8.389E-11
         2397.,   7.925E-11
         2400.,   8.735E-11
         2403.,   8.952E-11
         2405.,   7.453E-11
         2407.,   7.933E-11
         2410.,   7.854E-11
         2413.,   7.995E-11
         2415.,   9.813E-11
         2417.,   1.195E-10
         2420.,   1.364E-10
         2423.,   1.393E-10
         2425.,   1.350E-10
         2427.,   1.413E-10
         2430.,   1.371E-10
         2433.,   1.288E-10
         2435.,   1.201E-10
         2437.,   1.221E-10
         2440.,   1.284E-10
         2443.,   1.324E-10
         2445.,   1.225E-10
         2448.,   1.088E-10
         2450.,   9.935E-11
         2452.,   9.481E-11
         2455.,   9.654E-11
         2457.,   1.003E-10
         2460.,   9.576E-11
         2463.,   8.936E-11
         2465.,   9.632E-11
         2467.,   1.055E-10
         2470.,   1.087E-10
         2473.,   1.084E-10
         2475.,   1.139E-10
         2477.,   1.078E-10
         2480.,   9.953E-11
         2483.,   8.888E-11
         2485.,   8.693E-11
         2487.,   8.371E-11
         2490.,   7.336E-11
         2493.,   9.548E-11
         2495.,   1.227E-10
         2497.,   1.273E-10
         2500.,   1.204E-10
         2502.,   1.177E-10
         2505.,   1.078E-10
         2507.,   1.049E-10
         2510.,   1.096E-10
         2513.,   9.490E-11
         2515.,   7.908E-11
         2518.,   7.887E-11
         2520.,   8.598E-11
         2522.,   8.213E-11
         2525.,   8.262E-11
         2527.,   8.105E-11
         2530.,   8.878E-11
         2532.,   1.039E-10
         2535.,   1.046E-10
         2538.,   1.048E-10
         2540.,   1.090E-10
         2542.,   1.149E-10
         2545.,   1.175E-10
         2548.,   1.104E-10
         2550.,   1.229E-10
         2552.,   1.547E-10
         2555.,   1.621E-10
         2558.,   1.641E-10
         2560.,   1.726E-10
         2562.,   1.582E-10
         2565.,   1.774E-10
         2567.,   2.207E-10
         2570.,   2.462E-10
         2573.,   2.486E-10
         2575.,   2.024E-10
         2577.,   2.119E-10
         2580.,   2.825E-10
         2582.,   2.666E-10
         2585.,   1.931E-10
         2587.,   2.181E-10
         2590.,   2.699E-10
         2593.,   2.243E-10
         2595.,   1.953E-10
         2598.,   1.548E-10
         2600.,   1.427E-10
         2602.,   1.937E-10
         2605.,   1.755E-10
         2607.,   1.537E-10
         2610.,   1.625E-10
         2612.,   1.425E-10
         2615.,   1.685E-10
         2618.,   1.962E-10
         2620.,   2.112E-10
         2622.,   2.236E-10
         2625.,   2.108E-10
         2627.,   1.820E-10
         2630.,   1.629E-10
         2633.,   1.911E-10
         2635.,   2.837E-10
         2638.,   3.911E-10
         2640.,   4.606E-10
         2642.,   4.954E-10
         2645.,   5.002E-10
         2647.,   4.140E-10
         2650.,   3.725E-10
         2652.,   4.361E-10
         2655.,   5.066E-10
         2657.,   5.018E-10
         2660.,   4.658E-10
         2662.,   4.287E-10
         2665.,   4.305E-10
         2667.,   4.380E-10
         2670.,   4.368E-10
         2673.,   4.401E-10
         2675.,   4.876E-10
         2677.,   4.469E-10
         2680.,   4.310E-10
         2682.,   4.428E-10
         2685.,   4.475E-10
         2687.,   4.270E-10
         2690.,   4.048E-10
         2692.,   4.268E-10
         2695.,   4.012E-10
         2698.,   4.190E-10
         2700.,   4.847E-10
         2702.,   5.090E-10
         2705.,   5.087E-10
         2707.,   4.695E-10
         2710.,   4.519E-10
         2713.,   4.483E-10
         2715.,   4.060E-10
         2718.,   3.328E-10
         2720.,   2.765E-10
         2722.,   3.142E-10
         2725.,   3.437E-10
         2727.,   4.067E-10
         2730.,   4.595E-10
         2732.,   4.009E-10
         2735.,   3.303E-10
         2737.,   2.780E-10
         2740.,   2.438E-10
         2742.,   2.269E-10
         2745.,   2.329E-10
         2747.,   2.235E-10
         2750.,   2.562E-10
         2753.,   3.150E-10
         2755.,   2.898E-10
         2758.,   3.712E-10
         2760.,   4.321E-10
         2762.,   4.210E-10
         2765.,   4.525E-10
         2767.,   4.292E-10
         2770.,   4.270E-10
         2772.,   4.543E-10
         2775.,   4.274E-10
         2778.,   3.531E-10
         2780.,   3.027E-10
         2782.,   2.941E-10
         2785.,   2.962E-10
         2787.,   2.643E-10
         2790.,   2.031E-10
         2793.,   1.596E-10
         2795.,   1.418E-10
         2798.,   1.328E-10
         2800.,   1.373E-10
         2802.,   1.456E-10
         2805.,   1.685E-10
         2807.,   2.311E-10
         2810.,   2.849E-10
         2812.,   3.349E-10
         2815.,   3.954E-10
         2817.,   4.337E-10
         2820.,   4.719E-10
         2823.,   5.020E-10
         2825.,   5.156E-10
         2827.,   5.171E-10
         2830.,   5.635E-10
         2833.,   5.708E-10
         2835.,   5.309E-10
         2838.,   5.320E-10
         2840.,   5.534E-10
         2842.,   4.955E-10
         2845.,   4.320E-10
         2847.,   3.217E-10
         2850.,   1.899E-10
         2852.,   1.610E-10
         2855.,   2.487E-10
         2858.,   3.824E-10
         2860.,   5.186E-10
         2862.,   5.818E-10
         2865.,   6.006E-10
         2867.,   5.685E-10
         2870.,   6.030E-10
         2873.,   6.695E-10
         2875.,   6.150E-10
         2878.,   5.410E-10
         2880.,   3.842E-10
         2883.,   4.107E-10
         2885.,   6.178E-10
         2887.,   6.817E-10
         2890.,   6.798E-10
         2892.,   7.029E-10
         2895.,   7.938E-10
         2898.,   9.004E-10
         2900.,   9.947E-10
         2903.,    1.043E-9
         2905.,    1.038E-9
         2907.,   9.689E-10
         2910.,   9.746E-10
         2913.,    1.012E-9
         2915.,   9.403E-10
         2918.,   9.162E-10
         2920.,   9.334E-10
         2923.,   8.639E-10
         2925.,   7.827E-10
         2927.,   8.001E-10
         2930.,   9.513E-10
         2932.,    1.024E-9
         2935.,   9.140E-10
         2938.,   7.741E-10
         2940.,   8.249E-10
         2942.,   9.008E-10
         2945.,   8.948E-10
         2948.,   7.647E-10
         2950.,   8.337E-10
         2952.,   9.314E-10
         2955.,   9.141E-10
         2958.,   9.582E-10
         2960.,    1.005E-9
         2963.,   9.970E-10
         2965.,   7.882E-10
         2967.,   6.511E-10
         2970.,   6.961E-10
         2972.,   7.614E-10
         2975.,   9.340E-10
         2978.,    1.079E-9
         2980.,   9.043E-10
         2983.,   6.443E-10
         2985.,   5.746E-10
         2987.,   7.550E-10
         2990.,   9.518E-10
         2993.,   8.688E-10
         2995.,   7.791E-10
         2998.,   8.286E-10
         3000.,   5.835E-10
         3003.,   6.082E-10
         3005.,   7.302E-10
         3007.,   6.839E-10
         3010.,   7.752E-10
         3012.,   8.587E-10
         3015.,   8.289E-10
         3018.,   6.535E-10
         3020.,   5.101E-10
         3023.,   6.909E-10
         3025.,   8.371E-10
         3027.,   9.829E-10
         3030.,    1.023E-9
         3032.,    1.091E-9
         3035.,    1.077E-9
         3038.,   9.011E-10
         3040.,   8.777E-10
         3043.,   9.508E-10
         3045.,    1.019E-9
         3048.,   9.199E-10
         3050.,    1.055E-9
         3052.,    1.099E-9
         3055.,   9.128E-10
         3058.,   7.168E-10
         3060.,   8.217E-10
         3063.,   9.396E-10
         3065.,   8.280E-10
         3067.,   8.842E-10
         3070.,    1.010E-9
         3073.,   9.707E-10
         3075.,   9.496E-10
         3077.,   9.763E-10
         3080.,   9.362E-10
         3083.,   9.315E-10
         3085.,    1.030E-9
         3087.,   9.354E-10
         3090.,   7.956E-10
         3092.,   6.923E-10
         3095.,   7.425E-10
         3098.,   7.136E-10
         3100.,   7.098E-10
         3103.,   7.820E-10
         3105.,   8.550E-10
         3107.,   9.291E-10
         3110.,    1.002E-9
         3112.,    1.061E-9
         3115.,    1.061E-9
         3118.,    1.037E-9
         3120.,   9.990E-10
         3123.,   9.857E-10
         3125.,   9.838E-10
         3127.,   9.991E-10
         3130.,    1.013E-9
         3132.,    1.024E-9
         3135.,    1.027E-9
         3138.,    1.030E-9
         3140.,    1.035E-9
         3143.,    1.019E-9
         3145.,    1.017E-9
         3147.,    1.036E-9
         3150.,    1.046E-9
         3152.,    1.051E-9
         3155.,    1.045E-9
         3157.,   9.993E-10
         3160.,   9.281E-10
         3163.,   9.119E-10
         3165.,   9.267E-10
         3167.,   9.881E-10
         3170.,    1.079E-9
         3173.,    1.162E-9
         3175.,    1.179E-9
         3177.,    1.148E-9
         3180.,    1.084E-9
         3183.,    1.033E-9
         3185.,    1.011E-9
         3187.,    1.035E-9
         3190.,    1.063E-9
         3192.,    1.089E-9
         3195.,    1.103E-9
         3198.,    1.104E-9
         3200.,    1.096E-9
         3202.,    1.088E-9
         3205.,    1.080E-9
         3208.,    1.071E-9
         3210.,    1.063E-9
         3212.,    1.055E-9
         3215.,    1.046E-9
         3217.,    1.038E-9
         3220.,    1.030E-9
         3223.,    1.058E-9
         3225.,    1.086E-9
         3227.,    1.115E-9
         3230.,    1.143E-9
         3233.,    1.171E-9
         3235.,    1.200E-9
         3237.,    1.228E-9
         3240.,    1.256E-9
         3260.,    1.218E-9
         3270.,    1.271E-9
         3280.,    1.248E-9
         3290.,    1.329E-9
         3300.,    1.408E-9
         3310.,    1.327E-9
         3320.,    1.330E-9
         3330.,    1.306E-9
         3340.,    1.339E-9
         3350.,    1.383E-9
         3360.,    1.350E-9
         3370.,    1.220E-9
         3380.,    1.309E-9
         3390.,    1.357E-9
         3400.,    1.401E-9
         3410.,    1.380E-9
         3420.,    1.371E-9
         3430.,    1.367E-9
         3440.,    1.246E-9
         3450.,    1.259E-9
         3460.,    1.326E-9
         3470.,    1.312E-9
         3480.,    1.316E-9
         3490.,    1.334E-9
         3500.,    1.429E-9
         3510.,    1.538E-9
         3520.,    1.401E-9
         3530.,    1.437E-9
         3540.,    1.588E-9
         3550.,    1.609E-9
         3560.,    1.435E-9
         3570.,    1.291E-9
         3580.,    1.208E-9
         3590.,    1.330E-9
         3600.,    1.486E-9
         3610.,    1.401E-9
         3620.,    1.484E-9
         3630.,    1.540E-9
         3640.,    1.533E-9
         3650.,    1.668E-9
         3660.,    1.793E-9
         3670.,    1.785E-9
         3680.,    1.693E-9
         3690.,    1.729E-9
         3700.,    1.712E-9
         3710.,    1.672E-9
         3720.,    1.575E-9
         3730.,    1.385E-9
         3740.,    1.281E-9
         3750.,    1.445E-9
         3760.,    1.515E-9
         3770.,    1.672E-9
         3780.,    1.794E-9
         3790.,    1.681E-9
         3800.,    1.645E-9
         3810.,    1.574E-9
         3820.,    1.310E-9
         3830.,    1.167E-9
         3840.,    1.272E-9
         3850.,    1.345E-9
         3860.,    1.324E-9
         3870.,    1.380E-9
         3880.,    1.388E-9
         3890.,    1.527E-9
         3900.,    1.609E-9
         3910.,    1.682E-9
         3920.,    1.590E-9
         3930.,    1.406E-9
         3940.,    1.461E-9
         3950.,    1.750E-9
         3960.,    1.689E-9
         3970.,    1.657E-9
         3980.,    2.143E-9
         3990.,    2.523E-9
         4000.,    2.665E-9
         4010.,    2.864E-9
         4020.,    2.803E-9
         4030.,    2.798E-9
         4040.,    2.671E-9
         4050.,    2.669E-9
         4060.,    2.625E-9
         4070.,    2.555E-9
         4080.,    2.667E-9
         4090.,    2.812E-9
         4100.,    2.747E-9
         4110.,    2.813E-9
         4120.,    2.862E-9
         4130.,    2.777E-9
         4140.,    2.702E-9
         4150.,    2.672E-9
         4160.,    2.766E-9
         4170.,    2.733E-9
         4180.,    2.648E-9
         4190.,    2.638E-9
         4200.,    2.707E-9
         4210.,    2.773E-9
         4220.,    2.656E-9
         4230.,    2.597E-9
         4240.,    2.722E-9
         4250.,    2.726E-9
         4260.,    2.730E-9
         4270.,    2.736E-9
         4280.,    2.686E-9
         4290.,    2.644E-9
         4300.,    2.481E-9
         4310.,    2.677E-9
         4320.,    2.942E-9
         4330.,    2.818E-9
         4340.,    2.990E-9
         4350.,    2.826E-9
         4360.,    2.769E-9
         4370.,    2.770E-9
         4380.,    2.754E-9
         4390.,    2.699E-9
         4400.,    2.658E-9
         4410.,    2.914E-9
         4420.,    3.223E-9
         4430.,    3.348E-9
         4440.,    3.485E-9
         4450.,    3.390E-9
         4460.,    3.349E-9
         4470.,    3.601E-9
         4480.,    3.659E-9
         4490.,    3.657E-9
         4500.,    3.799E-9
         4510.,    3.869E-9
         4520.,    3.708E-9
         4530.,    3.620E-9
         4540.,    3.696E-9
         4550.,    3.764E-9
         4560.,    3.843E-9
         4570.,    3.774E-9
         4580.,    3.698E-9
         4590.,    3.684E-9
         4600.,    3.722E-9
         4610.,    3.802E-9
         4620.,    3.795E-9
         4630.,    3.791E-9
         4640.,    3.691E-9
         4650.,    3.693E-9
         4660.,    3.673E-9
         4670.,    3.677E-9
         4680.,    3.698E-9
         4690.,    3.713E-9
         4700.,    3.641E-9
         4710.,    3.701E-9
         4720.,    3.803E-9
         4730.,    3.841E-9
         4740.,    3.811E-9
         4750.,    3.857E-9
         4760.,    3.799E-9
         4770.,    3.859E-9
         4780.,    3.963E-9
         4790.,    3.976E-9
         4800.,    4.035E-9
         4810.,    3.987E-9
         4820.,    3.982E-9
         4830.,    3.914E-9
         4840.,    3.890E-9
         4850.,    3.804E-9
         4860.,    3.621E-9
         4870.,    3.594E-9
         4880.,    3.651E-9
         4890.,    3.663E-9
         4900.,    3.762E-9
         4910.,    3.735E-9
         4920.,    3.649E-9
         4930.,    3.681E-9
         4940.,    3.732E-9
         4950.,    3.712E-9
         4960.,    3.701E-9
         4970.,    3.748E-9
         4980.,    3.635E-9
         4990.,    3.636E-9
         5000.,    3.603E-9
         5010.,    3.514E-9
         5020.,    3.522E-9
         5030.,    3.627E-9
         5040.,    3.612E-9
         5050.,    3.600E-9
         5060.,    3.585E-9
         5070.,    3.570E-9
         5080.,    3.536E-9
         5090.,    3.533E-9
         5100.,    3.642E-9
         5110.,    3.636E-9
         5120.,    3.597E-9
         5130.,    3.523E-9
         5140.,    3.514E-9
         5150.,    3.477E-9
         5160.,    3.329E-9
         5170.,    3.123E-9
         5180.,    3.150E-9
         5190.,    3.245E-9
         5200.,    3.405E-9
         5210.,    3.282E-9
         5220.,    3.324E-9
         5230.,    3.340E-9
         5240.,    3.464E-9
         5250.,    3.516E-9
         5260.,    3.321E-9
         5270.,    3.232E-9
         5280.,    3.382E-9
         5290.,    3.524E-9
         5300.,    3.549E-9
         5310.,    3.613E-9
         5320.,    3.545E-9
         5330.,    3.451E-9
         5340.,    3.517E-9
         5350.,    3.609E-9
         5360.,    3.642E-9
         5370.,    3.571E-9
         5380.,    3.548E-9
         5390.,    3.565E-9
         5400.,    3.459E-9
         5410.,    3.492E-9
         5420.,    3.646E-9
         5430.,    3.693E-9
         5440.,    3.690E-9
         5450.,    3.733E-9
         5460.,    3.712E-9
         5470.,    3.754E-9
         5480.,    3.729E-9
         5490.,    3.774E-9
         5500.,    3.815E-9
         5510.,    3.816E-9
         5520.,    3.810E-9
         5530.,    3.752E-9
         5540.,    3.710E-9
         5550.,    3.783E-9
         5560.,    3.765E-9
         5570.,    3.691E-9
         5580.,    3.664E-9
         5590.,    3.640E-9
         5600.,    3.610E-9
         5610.,    3.734E-9
         5620.,    3.759E-9
         5630.,    3.788E-9
         5640.,    3.792E-9
         5650.,    3.806E-9
         5660.,    3.786E-9
         5670.,    3.803E-9
         5680.,    3.831E-9
         5690.,    3.862E-9
         5700.,    3.770E-9
         5710.,    3.737E-9
         5720.,    3.771E-9
         5730.,    3.909E-9
         5740.,    3.829E-9
         5760.,    3.806E-9
         5780.,    3.789E-9
         5800.,    3.806E-9
         5820.,    3.819E-9
         5840.,    3.790E-9
         5860.,    3.764E-9
         5880.,    3.677E-9
         5900.,    3.649E-9
         5920.,    3.707E-9
         5940.,    3.763E-9
         5960.,    3.729E-9
         5980.,    3.754E-9
         6000.,    3.750E-9
         6020.,    3.750E-9
         6040.,    3.767E-9
         6060.,    3.751E-9
         6080.,    3.792E-9
         6100.,    3.762E-9
         6120.,    3.672E-9
         6140.,    3.663E-9
         6160.,    3.570E-9
         6180.,    3.593E-9
         6200.,    3.624E-9
         6220.,    3.633E-9
         6240.,    3.646E-9
         6260.,    3.629E-9
         6280.,    3.639E-9
         6300.,    3.655E-9
         6320.,    3.571E-9
         6340.,    3.601E-9
         6360.,    3.600E-9
         6380.,    3.616E-9
         6400.,    3.590E-9
         6420.,    3.544E-9
         6440.,    3.599E-9
         6460.,    3.603E-9
         6480.,    3.576E-9
         6500.,    3.588E-9
         6520.,    3.605E-9
         6540.,    3.607E-9
         6560.,    3.528E-9
         6580.,    3.522E-9
         6600.,    3.620E-9
         6620.,    3.656E-9
         6640.,    3.624E-9
         6660.,    3.587E-9
         6680.,    3.546E-9
         6700.,    3.500E-9
         6720.,    3.482E-9
         6740.,    3.486E-9
         6760.,    3.460E-9
         6780.,    3.481E-9
         6800.,    3.475E-9
         6820.,    3.366E-9
         6840.,    3.401E-9
         6860.,    3.344E-9
         6880.,    3.362E-9
         6900.,    3.370E-9
         6920.,    3.381E-9
         6940.,    3.467E-9
         6960.,    3.458E-9
         6980.,    3.375E-9
         7000.,    3.374E-9
         7020.,    3.408E-9
         7040.,    3.345E-9
         7060.,    3.335E-9
         7080.,    3.329E-9
         7100.,    3.315E-9
         7120.,    3.272E-9
         7140.,    3.249E-9
         7160.,    3.391E-9
         7180.,    3.439E-9
         7200.,    3.247E-9
         7220.,    3.203E-9
         7240.,    3.217E-9
         7260.,    3.189E-9
         7280.,    3.174E-9
         7300.,    3.177E-9
         7320.,    3.139E-9
         7340.,    3.091E-9
         7360.,    3.103E-9
         7380.,    3.100E-9
         7400.,    3.029E-9
         7420.,    3.049E-9
         7440.,    3.056E-9
         7460.,    3.062E-9
         7480.,    3.036E-9
         7500.,    3.014E-9
         7520.,    2.992E-9
         7540.,    2.994E-9
         7560.,    2.924E-9
         7580.,    3.224E-9
         7600.,    3.351E-9
         7620.,    3.791E-9
         7640.,    3.335E-9
         7660.,    2.993E-9
         7680.,    2.675E-9
         7700.,    2.852E-9
         7720.,    2.909E-9
         7740.,    2.941E-9
         7760.,    2.894E-9
         7780.,    2.905E-9
         7800.,    2.894E-9
         7820.,    2.879E-9
         7840.,    2.882E-9
         7860.,    2.860E-9
         7880.,    2.853E-9
         7900.,    2.849E-9
         7920.,    2.801E-9
         7940.,    2.766E-9
         7960.,    2.782E-9
         7980.,    2.799E-9
         8000.,    2.777E-9
         8020.,    2.751E-9
         8040.,    2.735E-9
         8060.,    2.729E-9
         8080.,    2.698E-9
         8100.,    2.656E-9
         8120.,    2.727E-9
         8140.,    2.745E-9
         8160.,    2.682E-9
         8180.,    2.608E-9
         8200.,    2.569E-9
         8220.,    2.558E-9
         8240.,    2.559E-9
         8260.,    2.598E-9
         8280.,    2.534E-9
         8300.,    2.557E-9
         8320.,    2.545E-9
         8340.,    2.469E-9
         8360.,    2.517E-9
         8380.,    2.509E-9
         8400.,    2.533E-9
         8420.,    2.505E-9
         8440.,    2.437E-9
         8460.,    2.475E-9
         8480.,    2.425E-9
         8500.,    2.391E-9
         8520.,    2.421E-9
         8540.,    2.359E-9
         8560.,    2.365E-9
         8580.,    2.422E-9
         8600.,    2.437E-9
         8620.,    2.448E-9
         8640.,    2.407E-9
         8660.,    2.317E-9
         8680.,    2.366E-9
         8700.,    2.402E-9
         8720.,    2.355E-9
         8740.,    2.374E-9
         8760.,    2.410E-9
         8780.,    2.367E-9
         8800.,    2.361E-9
         8820.,    2.364E-9
         8840.,    2.385E-9
         8860.,    2.337E-9
         8880.,    2.317E-9
         8900.,    2.301E-9
         8920.,    2.289E-9
         8940.,    2.322E-9
         8960.,    2.346E-9
         8980.,    2.357E-9
         9000.,    2.336E-9
         9020.,    2.334E-9
         9040.,    2.386E-9
         9060.,    2.388E-9
         9080.,    2.294E-9
         9100.,    2.300E-9
         9120.,    2.303E-9
         9140.,    2.293E-9
         9160.,    2.272E-9
         9180.,    2.319E-9
         9200.,    2.317E-9
         9220.,    2.278E-9
         9240.,    2.158E-9
         9260.,    2.072E-9
         9280.,    2.114E-9
         9300.,    2.128E-9
         9320.,    2.352E-9
         9340.,    2.586E-9
         9360.,    2.229E-9
         9380.,    2.291E-9
         9400.,    2.398E-9
         9420.,    2.258E-9
         9440.,    2.099E-9
         9460.,    2.150E-9
         9480.,    2.115E-9
         9500.,    2.139E-9
         9520.,    2.145E-9
         9540.,    2.182E-9
         9560.,    2.092E-9
         9580.,    2.134E-9
         9600.,    2.059E-9
         9620.,    2.122E-9
         9640.,    2.073E-9
         9660.,    2.081E-9
         9680.,    2.032E-9
         9700.,    1.989E-9
         9720.,    1.999E-9
         9740.,    1.984E-9
         9760.,    1.977E-9
         9780.,    1.963E-9
         9800.,    1.992E-9
         9820.,    2.038E-9
         9840.,    1.993E-9
         9860.,    1.993E-9
         9880.,    1.943E-9
         9900.,    1.987E-9
         9920.,    1.913E-9
         9940.,    1.932E-9
         9960.,    1.906E-9
         9980.,    1.900E-9
        10000.,    1.927E-9
        10020.,    1.932E-9
        10040.,    1.906E-9
        10060.,    1.884E-9
        10080.,    1.889E-9
        10100.,    1.872E-9
        10120.,    1.895E-9
        10140.,    1.864E-9
        10160.,    1.828E-9
        10180.,    1.809E-9
        10200.,    1.847E-9
        10220.,    1.864E-9
        10240.,    1.825E-9
        10260.,    1.828E-9
        10280.,    1.805E-9
        10300.,    1.791E-9
        10320.,    1.786E-9
        10340.,    1.801E-9
        10360.,    1.773E-9
        10380.,    1.718E-9
        10400.,    1.768E-9
        10420.,    1.748E-9
        10440.,    1.786E-9
        10460.,    1.745E-9
        10480.,    1.742E-9
        10500.,    1.768E-9
        10520.,    1.769E-9
        10540.,    1.744E-9
        10560.,    1.770E-9
        10580.,    1.763E-9
        10600.,    1.708E-9
        10800.,    1.633E-9
        11000.,    1.555E-9
        11200.,    1.478E-9
        11400.,    1.402E-9
        11600.,    1.331E-9
        11800.,    1.265E-9
        12000.,    1.205E-9
        12200.,    1.152E-9
        12400.,    1.108E-9
        12600.,    1.073E-9
        12800.,    1.038E-9
        13000.,    1.004E-9
        13200.,   9.735E-10
        13400.,   9.436E-10
        13600.,   9.153E-10
        13800.,   8.842E-10
        14000.,   8.536E-10
        14200.,   8.209E-10
        14400.,   7.950E-10
        14600.,   7.719E-10
        14800.,   7.468E-10
        15000.,   7.253E-10
        15200.,   7.039E-10
        15400.,   6.829E-10
        15600.,   6.620E-10
        15800.,   6.435E-10
        16000.,   6.270E-10
        16200.,   6.100E-10
        16400.,   5.909E-10
        16600.,   5.705E-10
        16800.,   5.501E-10
        17000.,   5.287E-10
        17200.,   5.073E-10
        17400.,   4.874E-10
        17600.,   4.700E-10
        17800.,   4.516E-10
        18000.,   4.342E-10
        18200.,   4.198E-10
        18400.,   4.054E-10
        18600.,   3.894E-10
        18800.,   3.760E-10
        19000.,   3.646E-10
        19200.,   3.521E-10
        19400.,   3.402E-10
        19600.,   3.283E-10
        19800.,   3.168E-10
        20000.,   3.059E-10
        20200.,   2.974E-10
        20400.,   2.870E-10
        20600.,   2.773E-10
        20800.,   2.676E-10
        21000.,   2.566E-10
        21200.,   2.482E-10
        21400.,   2.397E-10
        21600.,   2.305E-10
        21800.,   2.220E-10
        22000.,   2.156E-10
        22200.,   2.089E-10
        22400.,   2.026E-10
        22600.,   1.954E-10
        22800.,   1.895E-10
        23000.,   1.835E-10
        23200.,   1.776E-10
        23400.,   1.721E-10
        23600.,   1.663E-10
        23800.,   1.605E-10
        24000.,   1.557E-10
        24200.,   1.508E-10
        24400.,   1.464E-10
        24600.,   1.421E-10
        24800.,   1.383E-10
        25000.,   1.349E-10
        25200.,   1.311E-10
        25400.,   1.277E-10
        25600.,   1.244E-10
