wavelength, flux
          229.,          0.
          234.,          0.
          243.,          0.
          252.,          0.
          256.,          0.
          260.,          0.
          266.,          0.
          275.,          0.
          283.,          0.
          293.,          0.
          301.,          0.
          309.,          0.
          325.,          0.
          342.,          0.
          351.,          0.
          356.,          0.
          365.,          0.
          375.,          0.
          384.,          0.
          400.,          0.
          415.,          0.
          425.,          0.
          445.,          0.
          472.,          0.
          494.,          0.
          506.,          0.
          516.,          0.
          540.,          0.
          564.,          0.
          587.,          0.
          612.,          0.
          640.,          0.
          671.,          0.
          705.,          0.
          736.,          0.
          770.,          0.
          810.,          0.
          850.,          0.
          890.,          0.
          920.,          0.
          940.,          0.
          962.,          0.
          987.,          0.
         1012.,          0.
         1037.,          0.
         1062.,          0.
         1087.,          0.
         1112.,          0.
         1120.,          0.
         1140.,          0.
         1160.,          0.
         1180.,          0.
         1200.,          0.
         1220.,          0.
         1240.,          0.
         1260.,          0.
         1280.,          0.
         1300.,          0.
         1320.,          0.
         1340.,          0.
         1360.,          0.
         1380.,          0.
         1400.,          0.
         1420.,          0.
         1440.,          0.
         1460.,          0.
         1480.,          0.
         1500.,          0.
         1520.,          0.
         1540.,          0.
         1560.,          0.
         1580.,          0.
         1600.,          0.
         1620.,          0.
         1640.,          0.
         1660.,          0.
         1680.,          0.
         1700.,          0.
         1720.,          0.
         1740.,          0.
         1760.,          0.
         1780.,          0.
         1800.,          0.
         1820.,          0.
         1840.,          0.
         1860.,          0.
         1880.,          0.
         1900.,          0.
         1920.,          0.
         1940.,          0.
         1960.,          0.
         1980.,          0.
         2000.,   1.760E-12
         2002.,   2.119E-12
         2005.,   1.755E-12
         2008.,   3.129E-12
         2010.,   3.595E-12
         2012.,   3.348E-12
         2015.,   3.170E-12
         2018.,   3.067E-12
         2020.,   1.613E-12
         2022.,   6.157E-13
         2025.,   1.264E-12
         2027.,   1.772E-12
         2030.,   1.721E-12
         2032.,   2.340E-12
         2035.,   3.405E-12
         2038.,   2.939E-12
         2040.,   2.472E-12
         2042.,   2.438E-12
         2045.,   2.675E-12
         2048.,   3.413E-12
         2050.,   3.794E-12
         2052.,   4.036E-12
         2055.,   3.581E-12
         2058.,   2.733E-12
         2060.,   3.085E-12
         2062.,   3.870E-12
         2065.,   5.337E-12
         2067.,   6.079E-12
         2070.,   4.956E-12
         2072.,   4.520E-12
         2075.,   4.511E-12
         2077.,   5.689E-12
         2080.,   6.866E-12
         2082.,   7.276E-12
         2085.,   7.220E-12
         2088.,   6.464E-12
         2090.,   6.041E-12
         2092.,   5.702E-12
         2095.,   5.463E-12
         2098.,   5.189E-12
         2100.,   4.390E-12
         2102.,   3.685E-12
         2105.,   3.099E-12
         2107.,   2.207E-12
         2110.,   7.689E-13
         2112.,   1.411E-12
         2115.,   2.566E-12
         2118.,   2.972E-12
         2120.,   3.434E-12
         2122.,   4.540E-12
         2125.,   5.489E-12
         2128.,   6.271E-12
         2130.,   6.726E-12
         2133.,   7.137E-12
         2135.,   7.414E-12
         2138.,   7.369E-12
         2140.,   6.175E-12
         2142.,   4.443E-12
         2145.,   2.353E-12
         2147.,   1.411E-12
         2150.,   1.530E-12
         2153.,   1.846E-12
         2155.,   1.897E-12
         2157.,   9.953E-13
         2160.,   4.731E-13
         2162.,   1.946E-12
         2165.,   2.598E-12
         2168.,   2.606E-12
         2170.,   2.376E-12
         2173.,   2.137E-12
         2175.,   1.754E-12
         2177.,   1.467E-12
         2180.,   1.475E-12
         2182.,   1.220E-12
         2185.,   9.199E-13
         2187.,   6.202E-13
         2190.,   3.204E-13
         2193.,   9.262E-13
         2195.,   1.532E-12
         2198.,   2.356E-12
         2200.,   2.985E-12
         2202.,   2.938E-12
         2205.,   2.972E-12
         2208.,   3.052E-12
         2210.,   2.551E-12
         2213.,   1.593E-12
         2215.,   1.671E-12
         2218.,   1.473E-12
         2220.,   7.057E-13
         2222.,   7.788E-14
         2225.,   1.168E-13
         2227.,   1.557E-13
         2230.,   1.947E-13
         2233.,   2.336E-13
         2235.,   2.725E-13
         2237.,   2.997E-13
         2240.,   9.391E-13
         2242.,   2.497E-12
         2245.,   3.258E-12
         2248.,   3.708E-12
         2250.,   4.291E-12
         2253.,   4.972E-12
         2255.,   6.219E-12
         2257.,   6.645E-12
         2260.,   6.030E-12
         2262.,   5.524E-12
         2265.,   5.214E-12
         2267.,   5.388E-12
         2270.,   5.731E-12
         2273.,   6.151E-12
         2275.,   6.505E-12
         2277.,   6.096E-12
         2280.,   5.489E-12
         2282.,   4.667E-12
         2285.,   3.646E-12
         2288.,   2.599E-12
         2290.,   2.210E-12
         2293.,   1.946E-12
         2295.,   1.384E-12
         2298.,   1.129E-12
         2300.,   1.155E-12
         2302.,   1.331E-12
         2305.,   1.697E-12
         2307.,   1.692E-12
         2310.,   1.711E-12
         2313.,   2.034E-12
         2315.,   2.434E-12
         2317.,   3.240E-12
         2320.,   4.645E-12
         2322.,   6.522E-12
         2325.,   7.563E-12
         2327.,   8.568E-12
         2330.,   9.368E-12
         2333.,   9.732E-12
         2335.,   9.045E-12
         2337.,   8.436E-12
         2340.,   7.880E-12
         2342.,   6.599E-12
         2345.,   4.650E-12
         2347.,   3.520E-12
         2350.,   2.856E-12
         2353.,   3.032E-12
         2355.,   3.567E-12
         2357.,   5.240E-12
         2360.,   5.883E-12
         2362.,   5.992E-12
         2365.,   7.137E-12
         2368.,   8.283E-12
         2370.,   7.998E-12
         2373.,   8.322E-12
         2375.,   9.836E-12
         2377.,   9.568E-12
         2380.,   8.738E-12
         2383.,   8.194E-12
         2385.,   7.839E-12
         2387.,   7.822E-12
         2390.,   7.805E-12
         2393.,   7.901E-12
         2395.,   7.175E-12
         2397.,   4.684E-12
         2400.,   4.145E-12
         2403.,   4.366E-12
         2405.,   2.846E-12
         2407.,   4.786E-13
         2410.,   1.236E-12
         2413.,   2.117E-12
         2415.,   3.155E-12
         2417.,   4.624E-12
         2420.,   6.862E-12
         2423.,   7.537E-12
         2425.,   7.713E-12
         2427.,   7.806E-12
         2430.,   7.900E-12
         2433.,   6.149E-12
         2435.,   4.761E-12
         2437.,   3.919E-12
         2440.,   4.325E-12
         2443.,   5.043E-12
         2445.,   6.017E-12
         2448.,   6.999E-12
         2450.,   7.300E-12
         2452.,   7.835E-12
         2455.,   8.587E-12
         2457.,   9.298E-12
         2460.,   9.958E-12
         2463.,   1.055E-11
         2465.,   1.068E-11
         2467.,   9.377E-12
         2470.,   8.371E-12
         2473.,   8.909E-12
         2475.,   9.150E-12
         2477.,   9.069E-12
         2480.,   9.831E-12
         2483.,   1.071E-11
         2485.,   8.634E-12
         2487.,   6.610E-12
         2490.,   7.736E-12
         2493.,   7.703E-12
         2495.,   6.897E-12
         2497.,   7.028E-12
         2500.,   8.025E-12
         2502.,   8.030E-12
         2505.,   8.152E-12
         2507.,   8.710E-12
         2510.,   9.146E-12
         2513.,   9.194E-12
         2515.,   8.278E-12
         2518.,   6.818E-12
         2520.,   6.273E-12
         2522.,   5.766E-12
         2525.,   6.998E-12
         2527.,   8.582E-12
         2530.,   1.046E-11
         2532.,   1.159E-11
         2535.,   1.238E-11
         2538.,   1.257E-11
         2540.,   1.238E-11
         2542.,   1.297E-11
         2545.,   1.324E-11
         2548.,   1.304E-11
         2550.,   1.275E-11
         2552.,   1.223E-11
         2555.,   1.204E-11
         2558.,   1.208E-11
         2560.,   1.279E-11
         2562.,   1.351E-11
         2565.,   1.427E-11
         2567.,   1.455E-11
         2570.,   1.396E-11
         2573.,   1.202E-11
         2575.,   9.645E-12
         2577.,   7.902E-12
         2580.,   6.556E-12
         2582.,   6.366E-12
         2585.,   7.285E-12
         2587.,   9.405E-12
         2590.,   1.120E-11
         2593.,   1.252E-11
         2595.,   1.313E-11
         2598.,   1.357E-11
         2600.,   1.483E-11
         2602.,   1.641E-11
         2605.,   1.793E-11
         2607.,   1.941E-11
         2610.,   2.086E-11
         2612.,   2.150E-11
         2615.,   2.110E-11
         2618.,   2.084E-11
         2620.,   2.062E-11
         2622.,   2.040E-11
         2625.,   2.038E-11
         2627.,   2.280E-11
         2630.,   2.487E-11
         2633.,   2.656E-11
         2635.,   2.792E-11
         2638.,   2.924E-11
         2640.,   2.906E-11
         2642.,   2.852E-11
         2645.,   2.807E-11
         2647.,   2.770E-11
         2650.,   2.739E-11
         2652.,   2.789E-11
         2655.,   2.916E-11
         2657.,   2.986E-11
         2660.,   3.052E-11
         2662.,   3.121E-11
         2665.,   3.159E-11
         2667.,   3.027E-11
         2670.,   3.017E-11
         2673.,   3.102E-11
         2675.,   3.137E-11
         2677.,   3.169E-11
         2680.,   3.372E-11
         2682.,   3.548E-11
         2685.,   3.599E-11
         2687.,   3.539E-11
         2690.,   3.426E-11
         2692.,   3.149E-11
         2695.,   2.762E-11
         2698.,   2.421E-11
         2700.,   2.323E-11
         2702.,   2.236E-11
         2705.,   2.623E-11
         2707.,   2.986E-11
         2710.,   3.124E-11
         2713.,   3.165E-11
         2715.,   3.161E-11
         2718.,   2.957E-11
         2720.,   2.619E-11
         2722.,   2.789E-11
         2725.,   2.986E-11
         2727.,   3.242E-11
         2730.,   3.478E-11
         2732.,   3.651E-11
         2735.,   3.733E-11
         2737.,   3.762E-11
         2740.,   3.743E-11
         2742.,   3.723E-11
         2745.,   3.834E-11
         2747.,   3.929E-11
         2750.,   3.987E-11
         2753.,   4.060E-11
         2755.,   4.138E-11
         2758.,   4.075E-11
         2760.,   4.001E-11
         2762.,   4.572E-11
         2765.,   5.061E-11
         2767.,   5.459E-11
         2770.,   5.911E-11
         2772.,   6.442E-11
         2775.,   6.409E-11
         2778.,   6.146E-11
         2780.,   5.803E-11
         2782.,   5.474E-11
         2785.,   5.449E-11
         2787.,   6.023E-11
         2790.,   7.358E-11
         2793.,   8.070E-11
         2795.,   8.662E-11
         2798.,   9.374E-11
         2800.,   9.717E-11
         2802.,   7.922E-11
         2805.,   6.986E-11
         2807.,   6.727E-11
         2810.,   6.328E-11
         2812.,   5.781E-11
         2815.,   6.033E-11
         2817.,   6.394E-11
         2820.,   6.585E-11
         2823.,   6.684E-11
         2825.,   6.437E-11
         2827.,   6.320E-11
         2830.,   6.321E-11
         2833.,   6.236E-11
         2835.,   6.040E-11
         2838.,   6.141E-11
         2840.,   6.198E-11
         2842.,   5.938E-11
         2845.,   5.589E-11
         2847.,   4.775E-11
         2850.,   4.082E-11
         2852.,   3.487E-11
         2855.,   3.581E-11
         2858.,   3.705E-11
         2860.,   4.259E-11
         2862.,   4.903E-11
         2865.,   5.626E-11
         2867.,   6.075E-11
         2870.,   6.340E-11
         2873.,   6.745E-11
         2875.,   7.279E-11
         2878.,   7.580E-11
         2880.,   7.836E-11
         2883.,   8.038E-11
         2885.,   8.351E-11
         2887.,   9.014E-11
         2890.,   9.763E-11
         2892.,   1.057E-10
         2895.,   1.172E-10
         2898.,   1.286E-10
         2900.,   1.360E-10
         2903.,   1.431E-10
         2905.,   1.496E-10
         2907.,   1.524E-10
         2910.,   1.540E-10
         2913.,   1.560E-10
         2915.,   1.583E-10
         2918.,   1.567E-10
         2920.,   1.544E-10
         2923.,   1.512E-10
         2925.,   1.485E-10
         2927.,   1.474E-10
         2930.,   1.442E-10
         2932.,   1.407E-10
         2935.,   1.406E-10
         2938.,   1.403E-10
         2940.,   1.364E-10
         2942.,   1.350E-10
         2945.,   1.370E-10
         2948.,   1.350E-10
         2950.,   1.323E-10
         2952.,   1.381E-10
         2955.,   1.450E-10
         2958.,   1.442E-10
         2960.,   1.416E-10
         2963.,   1.371E-10
         2965.,   1.280E-10
         2967.,   1.119E-10
         2970.,   1.150E-10
         2972.,   1.226E-10
         2975.,   1.285E-10
         2978.,   1.347E-10
         2980.,   1.424E-10
         2983.,   1.447E-10
         2985.,   1.422E-10
         2987.,   1.410E-10
         2990.,   1.399E-10
         2993.,   1.353E-10
         2995.,   1.291E-10
         2998.,   1.196E-10
         3000.,   1.157E-10
         3003.,   1.150E-10
         3005.,   1.208E-10
         3007.,   1.337E-10
         3010.,   1.377E-10
         3012.,   1.383E-10
         3015.,   1.334E-10
         3018.,   1.289E-10
         3020.,   1.265E-10
         3023.,   1.300E-10
         3025.,   1.374E-10
         3027.,   1.557E-10
         3030.,   1.840E-10
         3032.,   1.860E-10
         3035.,   1.867E-10
         3038.,   1.894E-10
         3040.,   1.884E-10
         3043.,   1.758E-10
         3045.,   1.845E-10
         3048.,   2.051E-10
         3050.,   1.999E-10
         3052.,   1.937E-10
         3055.,   1.984E-10
         3058.,   1.998E-10
         3060.,   1.891E-10
         3063.,   1.974E-10
         3065.,   2.146E-10
         3067.,   2.323E-10
         3070.,   2.501E-10
         3073.,   2.656E-10
         3075.,   2.748E-10
         3077.,   2.747E-10
         3080.,   2.742E-10
         3083.,   2.730E-10
         3085.,   2.674E-10
         3087.,   2.607E-10
         3090.,   2.573E-10
         3092.,   2.540E-10
         3095.,   2.536E-10
         3098.,   2.620E-10
         3100.,   2.863E-10
         3103.,   3.088E-10
         3105.,   3.307E-10
         3107.,   3.554E-10
         3110.,   3.786E-10
         3112.,   3.676E-10
         3115.,   3.585E-10
         3118.,   3.513E-10
         3120.,   3.434E-10
         3123.,   3.344E-10
         3125.,   3.368E-10
         3127.,   3.427E-10
         3130.,   3.512E-10
         3132.,   3.603E-10
         3135.,   3.735E-10
         3138.,   3.874E-10
         3140.,   4.021E-10
         3143.,   4.062E-10
         3145.,   4.084E-10
         3147.,   4.096E-10
         3150.,   4.089E-10
         3152.,   4.001E-10
         3155.,   3.897E-10
         3157.,   3.779E-10
         3160.,   3.602E-10
         3163.,   3.360E-10
         3165.,   3.563E-10
         3167.,   3.850E-10
         3170.,   4.199E-10
         3173.,   4.558E-10
         3175.,   4.955E-10
         3177.,   5.000E-10
         3180.,   4.810E-10
         3183.,   4.708E-10
         3185.,   4.606E-10
         3187.,   4.544E-10
         3190.,   4.548E-10
         3192.,   4.749E-10
         3195.,   4.819E-10
         3198.,   4.816E-10
         3200.,   4.864E-10
         3202.,   4.807E-10
         3205.,   4.751E-10
         3208.,   4.694E-10
         3210.,   4.638E-10
         3212.,   4.581E-10
         3215.,   4.524E-10
         3217.,   4.468E-10
         3220.,   4.411E-10
         3223.,   4.569E-10
         3225.,   4.727E-10
         3227.,   4.886E-10
         3230.,   5.044E-10
         3233.,   5.202E-10
         3235.,   5.361E-10
         3237.,   5.519E-10
         3240.,   5.677E-10
         3260.,   6.355E-10
         3270.,   6.507E-10
         3280.,   6.756E-10
         3290.,   7.515E-10
         3300.,   8.012E-10
         3310.,   7.262E-10
         3320.,   7.311E-10
         3330.,   6.846E-10
         3340.,   7.388E-10
         3350.,   7.345E-10
         3360.,   7.036E-10
         3370.,   6.207E-10
         3380.,   6.900E-10
         3390.,   7.638E-10
         3400.,   7.879E-10
         3410.,   7.215E-10
         3420.,   7.412E-10
         3430.,   7.356E-10
         3440.,   6.223E-10
         3450.,   6.570E-10
         3460.,   7.371E-10
         3470.,   6.863E-10
         3480.,   7.324E-10
         3490.,   7.358E-10
         3500.,   7.687E-10
         3510.,   8.635E-10
         3520.,   7.474E-10
         3530.,   8.082E-10
         3540.,   9.319E-10
         3550.,   8.801E-10
         3560.,   7.148E-10
         3570.,   6.180E-10
         3580.,   6.058E-10
         3590.,   6.591E-10
         3600.,   7.208E-10
         3610.,   6.995E-10
         3620.,   7.843E-10
         3630.,   8.376E-10
         3640.,   7.955E-10
         3650.,   9.393E-10
         3660.,    1.058E-9
         3670.,    1.087E-9
         3680.,    1.001E-9
         3690.,    1.037E-9
         3700.,   9.287E-10
         3710.,   7.701E-10
         3720.,   7.073E-10
         3730.,   6.009E-10
         3740.,   5.550E-10
         3750.,   6.473E-10
         3760.,   7.222E-10
         3770.,   9.306E-10
         3780.,    1.037E-9
         3790.,   8.572E-10
         3800.,   8.150E-10
         3810.,   7.807E-10
         3820.,   5.778E-10
         3830.,   5.775E-10
         3840.,   6.230E-10
         3850.,   6.937E-10
         3860.,   6.697E-10
         3870.,   6.610E-10
         3880.,   7.194E-10
         3890.,   8.424E-10
         3900.,   8.827E-10
         3910.,    1.016E-9
         3920.,   8.534E-10
         3930.,   7.410E-10
         3940.,   8.663E-10
         3950.,    1.010E-9
         3960.,   9.236E-10
         3970.,    1.007E-9
         3980.,    1.374E-9
         3990.,    1.769E-9
         4000.,    1.861E-9
         4010.,    2.002E-9
         4020.,    1.959E-9
         4030.,    1.789E-9
         4040.,    1.778E-9
         4050.,    1.790E-9
         4060.,    1.770E-9
         4070.,    1.846E-9
         4080.,    2.031E-9
         4090.,    2.167E-9
         4100.,    2.073E-9
         4110.,    2.131E-9
         4120.,    2.108E-9
         4130.,    2.050E-9
         4140.,    1.853E-9
         4150.,    1.976E-9
         4160.,    2.035E-9
         4170.,    2.054E-9
         4180.,    1.993E-9
         4190.,    1.933E-9
         4200.,    2.013E-9
         4210.,    2.113E-9
         4220.,    1.788E-9
         4230.,    1.768E-9
         4240.,    1.928E-9
         4250.,    1.990E-9
         4260.,    1.971E-9
         4270.,    2.009E-9
         4280.,    1.964E-9
         4290.,    1.913E-9
         4300.,    1.756E-9
         4310.,    2.145E-9
         4320.,    2.436E-9
         4330.,    2.588E-9
         4340.,    2.630E-9
         4350.,    2.808E-9
         4360.,    2.902E-9
         4370.,    2.738E-9
         4380.,    2.419E-9
         4390.,    2.619E-9
         4400.,    2.545E-9
         4410.,    2.703E-9
         4420.,    2.877E-9
         4430.,    2.883E-9
         4440.,    3.022E-9
         4450.,    2.861E-9
         4460.,    2.826E-9
         4470.,    3.270E-9
         4480.,    3.326E-9
         4490.,    3.360E-9
         4500.,    3.510E-9
         4510.,    3.538E-9
         4520.,    3.249E-9
         4530.,    3.154E-9
         4540.,    3.394E-9
         4550.,    3.578E-9
         4560.,    3.555E-9
         4570.,    3.580E-9
         4580.,    3.561E-9
         4590.,    3.545E-9
         4600.,    3.556E-9
         4610.,    3.675E-9
         4620.,    3.557E-9
         4630.,    3.626E-9
         4640.,    3.572E-9
         4650.,    3.591E-9
         4660.,    3.556E-9
         4670.,    3.490E-9
         4680.,    3.578E-9
         4690.,    3.465E-9
         4700.,    3.481E-9
         4710.,    3.597E-9
         4720.,    3.570E-9
         4730.,    3.608E-9
         4740.,    3.686E-9
         4750.,    3.607E-9
         4760.,    3.527E-9
         4770.,    3.524E-9
         4780.,    3.478E-9
         4790.,    3.731E-9
         4800.,    3.816E-9
         4810.,    3.795E-9
         4820.,    3.697E-9
         4830.,    3.593E-9
         4840.,    3.639E-9
         4850.,    3.531E-9
         4860.,    3.420E-9
         4870.,    3.484E-9
         4880.,    3.337E-9
         4890.,    3.484E-9
         4900.,    3.632E-9
         4910.,    3.424E-9
         4920.,    3.386E-9
         4930.,    3.528E-9
         4940.,    3.412E-9
         4950.,    3.479E-9
         4960.,    3.473E-9
         4970.,    3.450E-9
         4980.,    3.297E-9
         4990.,    3.247E-9
         5000.,    3.197E-9
         5010.,    3.118E-9
         5020.,    3.240E-9
         5030.,    3.247E-9
         5040.,    3.065E-9
         5050.,    3.183E-9
         5060.,    3.133E-9
         5070.,    2.957E-9
         5080.,    2.986E-9
         5090.,    3.021E-9
         5100.,    2.829E-9
         5110.,    2.920E-9
         5120.,    2.963E-9
         5130.,    2.875E-9
         5140.,    2.817E-9
         5150.,    2.790E-9
         5160.,    2.541E-9
         5170.,    2.265E-9
         5180.,    2.464E-9
         5190.,    2.846E-9
         5200.,    2.752E-9
         5210.,    2.981E-9
         5220.,    3.216E-9
         5230.,    3.293E-9
         5240.,    3.401E-9
         5250.,    3.392E-9
         5260.,    2.986E-9
         5270.,    3.085E-9
         5280.,    3.597E-9
         5290.,    3.548E-9
         5300.,    3.534E-9
         5310.,    3.644E-9
         5320.,    3.358E-9
         5330.,    3.309E-9
         5340.,    3.509E-9
         5350.,    3.679E-9
         5360.,    3.502E-9
         5370.,    3.566E-9
         5380.,    3.688E-9
         5390.,    3.538E-9
         5400.,    3.322E-9
         5410.,    3.500E-9
         5420.,    3.649E-9
         5430.,    3.719E-9
         5440.,    3.781E-9
         5450.,    3.786E-9
         5460.,    3.761E-9
         5470.,    3.725E-9
         5480.,    3.800E-9
         5490.,    3.897E-9
         5500.,    3.894E-9
         5510.,    3.836E-9
         5520.,    3.771E-9
         5530.,    3.830E-9
         5540.,    3.947E-9
         5550.,    3.983E-9
         5560.,    3.814E-9
         5570.,    3.786E-9
         5580.,    3.636E-9
         5590.,    3.670E-9
         5600.,    3.873E-9
         5610.,    3.909E-9
         5620.,    3.860E-9
         5630.,    3.888E-9
         5640.,    3.990E-9
         5650.,    3.903E-9
         5660.,    3.958E-9
         5670.,    3.986E-9
         5680.,    3.892E-9
         5690.,    3.989E-9
         5700.,    3.924E-9
         5710.,    3.807E-9
         5720.,    3.971E-9
         5730.,    4.089E-9
         5740.,    4.180E-9
         5760.,    4.238E-9
         5780.,    4.222E-9
         5800.,    4.203E-9
         5820.,    4.154E-9
         5840.,    4.211E-9
         5860.,    4.056E-9
         5880.,    3.771E-9
         5900.,    3.822E-9
         5920.,    4.018E-9
         5940.,    4.171E-9
         5960.,    4.178E-9
         5980.,    4.166E-9
         6000.,    4.159E-9
         6020.,    4.178E-9
         6040.,    4.193E-9
         6060.,    4.211E-9
         6080.,    4.105E-9
         6100.,    4.129E-9
         6120.,    4.159E-9
         6140.,    4.016E-9
         6160.,    4.017E-9
         6180.,    4.029E-9
         6200.,    4.156E-9
         6220.,    3.983E-9
         6240.,    3.997E-9
         6260.,    3.946E-9
         6280.,    3.904E-9
         6300.,    4.025E-9
         6320.,    4.000E-9
         6340.,    3.925E-9
         6360.,    4.065E-9
         6380.,    4.048E-9
         6400.,    3.900E-9
         6420.,    3.941E-9
         6440.,    3.868E-9
         6460.,    3.962E-9
         6480.,    4.001E-9
         6500.,    4.006E-9
         6520.,    4.015E-9
         6540.,    3.954E-9
         6560.,    3.893E-9
         6580.,    3.885E-9
         6600.,    3.985E-9
         6620.,    3.976E-9
         6640.,    3.854E-9
         6660.,    3.933E-9
         6680.,    3.915E-9
         6700.,    3.894E-9
         6720.,    3.954E-9
         6740.,    3.982E-9
         6760.,    3.961E-9
         6780.,    3.999E-9
         6800.,    3.884E-9
         6820.,    3.930E-9
         6840.,    3.977E-9
         6860.,    3.851E-9
         6880.,    3.777E-9
         6900.,    3.842E-9
         6920.,    3.864E-9
         6940.,    3.877E-9
         6960.,    3.875E-9
         6980.,    3.828E-9
         7000.,    3.654E-9
         7020.,    3.822E-9
         7040.,    3.843E-9
         7060.,    3.771E-9
         7080.,    3.814E-9
         7100.,    3.770E-9
         7120.,    3.663E-9
         7140.,    3.656E-9
         7160.,    3.670E-9
         7180.,    3.822E-9
         7200.,    3.831E-9
         7220.,    3.787E-9
         7240.,    3.715E-9
         7260.,    3.678E-9
         7280.,    3.689E-9
         7300.,    3.702E-9
         7320.,    3.651E-9
         7340.,    3.540E-9
         7360.,    3.492E-9
         7380.,    3.557E-9
         7400.,    3.517E-9
         7420.,    3.513E-9
         7440.,    3.580E-9
         7460.,    3.609E-9
         7480.,    3.526E-9
         7500.,    3.561E-9
         7520.,    3.457E-9
         7540.,    3.505E-9
         7560.,    3.530E-9
         7580.,    3.168E-9
         7600.,    3.163E-9
         7620.,    4.015E-9
         7640.,    3.725E-9
         7660.,    3.546E-9
         7680.,    3.246E-9
         7700.,    3.326E-9
         7720.,    3.351E-9
         7740.,    3.458E-9
         7760.,    3.420E-9
         7780.,    3.375E-9
         7800.,    3.497E-9
         7820.,    3.485E-9
         7840.,    3.461E-9
         7860.,    3.500E-9
         7880.,    3.373E-9
         7900.,    3.402E-9
         7920.,    3.472E-9
         7940.,    3.392E-9
         7960.,    3.421E-9
         7980.,    3.392E-9
         8000.,    3.399E-9
         8020.,    3.389E-9
         8040.,    3.376E-9
         8060.,    3.393E-9
         8080.,    3.216E-9
         8100.,    3.304E-9
         8120.,    3.367E-9
         8140.,    3.350E-9
         8160.,    3.317E-9
         8180.,    3.266E-9
         8200.,    3.283E-9
         8220.,    3.226E-9
         8240.,    3.210E-9
         8260.,    3.335E-9
         8280.,    3.212E-9
         8300.,    3.229E-9
         8320.,    3.064E-9
         8340.,    2.980E-9
         8360.,    3.173E-9
         8380.,    3.133E-9
         8400.,    3.143E-9
         8420.,    3.172E-9
         8440.,    3.010E-9
         8460.,    3.139E-9
         8480.,    3.020E-9
         8500.,    3.016E-9
         8520.,    2.943E-9
         8540.,    2.916E-9
         8560.,    2.983E-9
         8580.,    3.096E-9
         8600.,    2.987E-9
         8620.,    3.070E-9
         8640.,    2.977E-9
         8660.,    2.953E-9
         8680.,    3.012E-9
         8700.,    2.964E-9
         8720.,    2.958E-9
         8740.,    2.928E-9
         8760.,    2.979E-9
         8780.,    2.922E-9
         8800.,    2.724E-9
         8820.,    2.888E-9
         8840.,    2.841E-9
         8860.,    2.915E-9
         8880.,    2.972E-9
         8900.,    2.883E-9
         8920.,    2.829E-9
         8940.,    2.924E-9
         8960.,    2.872E-9
         8980.,    3.006E-9
         9000.,    2.984E-9
         9020.,    3.061E-9
         9040.,    3.094E-9
         9060.,    2.995E-9
         9080.,    2.876E-9
         9100.,    3.038E-9
         9120.,    2.937E-9
         9140.,    2.896E-9
         9160.,    2.756E-9
         9180.,    2.876E-9
         9200.,    2.853E-9
         9220.,    2.778E-9
         9240.,    2.771E-9
         9260.,    2.714E-9
         9280.,    2.679E-9
         9300.,    2.737E-9
         9320.,    2.786E-9
         9340.,    3.290E-9
         9360.,    2.988E-9
         9380.,    2.953E-9
         9400.,    2.924E-9
         9420.,    2.685E-9
         9440.,    2.883E-9
         9460.,    2.973E-9
         9480.,    2.884E-9
         9500.,    2.795E-9
         9520.,    2.669E-9
         9540.,    2.727E-9
         9560.,    2.734E-9
         9580.,    2.706E-9
         9600.,    2.803E-9
         9620.,    2.751E-9
         9640.,    2.648E-9
         9660.,    2.678E-9
         9680.,    2.597E-9
         9700.,    2.590E-9
         9720.,    2.556E-9
         9740.,    2.585E-9
         9760.,    2.590E-9
         9780.,    2.548E-9
         9800.,    2.525E-9
         9820.,    2.533E-9
         9840.,    2.505E-9
         9860.,    2.442E-9
         9880.,    2.378E-9
         9900.,    2.408E-9
         9920.,    2.401E-9
         9940.,    2.340E-9
         9960.,    2.365E-9
         9980.,    2.395E-9
        10000.,    2.350E-9
        10020.,    2.358E-9
        10040.,    2.396E-9
        10060.,    2.363E-9
        10080.,    2.389E-9
        10100.,    2.383E-9
        10120.,    2.300E-9
        10140.,    2.294E-9
        10160.,    2.257E-9
        10180.,    2.297E-9
        10200.,    2.238E-9
        10220.,    2.229E-9
        10240.,    2.155E-9
        10260.,    2.261E-9
        10280.,    2.190E-9
        10300.,    2.205E-9
        10320.,    2.174E-9
        10340.,    2.172E-9
        10360.,    2.204E-9
        10380.,    2.224E-9
        10400.,    2.111E-9
        10420.,    2.186E-9
        10440.,    2.132E-9
        10460.,    2.197E-9
        10480.,    2.200E-9
        10500.,    2.200E-9
        10520.,    2.254E-9
        10540.,    2.171E-9
        10560.,    2.111E-9
        10580.,    2.118E-9
        10600.,    2.120E-9
        10800.,    2.045E-9
        11000.,    1.972E-9
        11200.,    1.901E-9
        11400.,    1.832E-9
        11600.,    1.767E-9
        11800.,    1.706E-9
        12000.,    1.649E-9
        12200.,    1.596E-9
        12400.,    1.549E-9
        12600.,    1.506E-9
        12800.,    1.465E-9
        13000.,    1.426E-9
        13200.,    1.386E-9
        13400.,    1.350E-9
        13600.,    1.319E-9
        13800.,    1.282E-9
        14000.,    1.248E-9
        14200.,    1.212E-9
        14400.,    1.181E-9
        14600.,    1.150E-9
        14800.,    1.119E-9
        15000.,    1.103E-9
        15200.,    1.086E-9
        15400.,    1.067E-9
        15600.,    1.050E-9
        15800.,    1.033E-9
        16000.,    1.015E-9
        16200.,   9.946E-10
        16400.,   9.683E-10
        16600.,   9.321E-10
        16800.,   9.023E-10
        17000.,   8.736E-10
        17200.,   8.439E-10
        17400.,   8.166E-10
        17600.,   7.858E-10
        17800.,   7.571E-10
        18000.,   7.283E-10
        18200.,   7.030E-10
        18400.,   6.812E-10
        18600.,   6.570E-10
        18800.,   6.336E-10
        19000.,   6.138E-10
        19200.,   5.940E-10
        19400.,   5.707E-10
        19600.,   5.499E-10
        19800.,   5.300E-10
        20000.,   5.112E-10
        20200.,   4.913E-10
        20400.,   4.742E-10
        20600.,   4.598E-10
        20800.,   4.445E-10
        21000.,   4.291E-10
        21200.,   4.165E-10
        21400.,   4.038E-10
        21600.,   3.912E-10
        21800.,   3.786E-10
        22000.,   3.659E-10
        22200.,   3.532E-10
        22400.,   3.416E-10
        22600.,   3.312E-10
        22800.,   3.190E-10
        23000.,   3.047E-10
        23200.,   2.908E-10
        23400.,   2.791E-10
        23600.,   2.665E-10
        23800.,   2.555E-10
        24000.,   2.466E-10
        24200.,   2.389E-10
        24400.,   2.326E-10
        24600.,   2.270E-10
        24800.,   2.227E-10
        25000.,   2.172E-10
        25200.,   2.104E-10
        25400.,   2.055E-10
        25600.,   2.011E-10
