wavelength, flux
          229.,          0.
          234.,          0.
          243.,          0.
          252.,          0.
          256.,          0.
          260.,          0.
          266.,          0.
          275.,          0.
          283.,          0.
          293.,          0.
          301.,          0.
          309.,          0.
          325.,          0.
          342.,          0.
          351.,          0.
          356.,          0.
          365.,          0.
          375.,          0.
          384.,          0.
          400.,          0.
          415.,          0.
          425.,          0.
          445.,          0.
          472.,          0.
          494.,          0.
          506.,          0.
          516.,          0.
          540.,          0.
          564.,          0.
          587.,          0.
          612.,          0.
          640.,          0.
          671.,          0.
          705.,          0.
          736.,          0.
          770.,          0.
          810.,          0.
          850.,          0.
          890.,          0.
          920.,          0.
          940.,          0.
          962.,          0.
          987.,          0.
         1012.,          0.
         1037.,          0.
         1062.,          0.
         1087.,          0.
         1112.,          0.
         1120.,          0.
         1140.,          0.
         1160.,          0.
         1180.,          0.
         1200.,          0.
         1220.,          0.
         1240.,          0.
         1260.,          0.
         1280.,          0.
         1300.,          0.
         1320.,          0.
         1340.,          0.
         1360.,          0.
         1380.,          0.
         1400.,          0.
         1420.,          0.
         1440.,          0.
         1460.,          0.
         1480.,          0.
         1500.,          0.
         1520.,          0.
         1540.,          0.
         1560.,          0.
         1580.,          0.
         1600.,          0.
         1620.,          0.
         1640.,          0.
         1660.,          0.
         1680.,          0.
         1700.,          0.
         1720.,          0.
         1740.,          0.
         1760.,          0.
         1780.,          0.
         1800.,          0.
         1820.,          0.
         1840.,          0.
         1860.,          0.
         1880.,          0.
         1900.,          0.
         1920.,          0.
         1940.,          0.
         1960.,          0.
         1980.,          0.
         2000.,   1.881E-12
         2002.,   1.881E-12
         2005.,   2.265E-12
         2008.,   1.876E-12
         2010.,   3.344E-12
         2012.,   3.843E-12
         2015.,   3.579E-12
         2018.,   3.388E-12
         2020.,   3.278E-12
         2022.,   1.724E-12
         2025.,   6.581E-13
         2027.,   1.351E-12
         2030.,   1.894E-12
         2032.,   1.840E-12
         2035.,   2.501E-12
         2038.,   3.640E-12
         2040.,   3.141E-12
         2042.,   2.642E-12
         2045.,   2.605E-12
         2048.,   2.860E-12
         2050.,   3.648E-12
         2052.,   4.055E-12
         2055.,   4.314E-12
         2058.,   3.827E-12
         2060.,   2.921E-12
         2062.,   3.297E-12
         2065.,   4.137E-12
         2067.,   5.705E-12
         2070.,   6.498E-12
         2072.,   5.297E-12
         2075.,   4.832E-12
         2077.,   4.822E-12
         2080.,   6.081E-12
         2082.,   7.339E-12
         2085.,   7.778E-12
         2088.,   7.717E-12
         2090.,   6.909E-12
         2092.,   6.457E-12
         2095.,   6.095E-12
         2098.,   5.839E-12
         2100.,   5.547E-12
         2102.,   4.692E-12
         2105.,   3.939E-12
         2107.,   3.313E-12
         2110.,   2.359E-12
         2112.,   8.218E-13
         2115.,   1.508E-12
         2118.,   2.743E-12
         2120.,   3.177E-12
         2122.,   3.671E-12
         2125.,   4.852E-12
         2128.,   5.867E-12
         2130.,   6.702E-12
         2133.,   7.189E-12
         2135.,   7.629E-12
         2138.,   7.924E-12
         2140.,   7.876E-12
         2142.,   6.600E-12
         2145.,   4.749E-12
         2147.,   2.515E-12
         2150.,   1.508E-12
         2153.,   1.635E-12
         2155.,   1.973E-12
         2157.,   2.028E-12
         2160.,   1.064E-12
         2162.,   5.057E-13
         2165.,   2.080E-12
         2168.,   2.777E-12
         2170.,   2.785E-12
         2173.,   2.540E-12
         2175.,   2.284E-12
         2177.,   1.875E-12
         2180.,   1.568E-12
         2182.,   1.577E-12
         2185.,   1.304E-12
         2187.,   9.832E-13
         2190.,   6.629E-13
         2193.,   3.425E-13
         2195.,   9.900E-13
         2198.,   1.638E-12
         2200.,   2.518E-12
         2202.,   3.190E-12
         2205.,   3.140E-12
         2208.,   3.177E-12
         2210.,   3.262E-12
         2213.,   2.727E-12
         2215.,   1.702E-12
         2218.,   1.786E-12
         2220.,   1.574E-12
         2222.,   7.543E-13
         2225.,   8.324E-14
         2227.,   1.249E-13
         2230.,   1.665E-13
         2233.,   2.081E-13
         2235.,   2.497E-13
         2237.,   2.913E-13
         2240.,   3.203E-13
         2242.,   1.004E-12
         2245.,   2.669E-12
         2248.,   3.482E-12
         2250.,   3.964E-12
         2253.,   4.587E-12
         2255.,   5.315E-12
         2257.,   6.647E-12
         2260.,   7.103E-12
         2262.,   6.445E-12
         2265.,   5.904E-12
         2267.,   5.573E-12
         2270.,   5.759E-12
         2273.,   6.125E-12
         2275.,   6.574E-12
         2277.,   6.953E-12
         2280.,   6.516E-12
         2282.,   5.867E-12
         2285.,   4.988E-12
         2288.,   3.897E-12
         2290.,   2.777E-12
         2293.,   2.362E-12
         2295.,   2.079E-12
         2298.,   1.479E-12
         2300.,   1.206E-12
         2302.,   1.235E-12
         2305.,   1.423E-12
         2307.,   1.814E-12
         2310.,   1.808E-12
         2313.,   1.829E-12
         2315.,   2.174E-12
         2317.,   2.602E-12
         2320.,   3.463E-12
         2322.,   4.965E-12
         2325.,   6.971E-12
         2327.,   8.083E-12
         2330.,   9.158E-12
         2333.,   1.001E-11
         2335.,   1.040E-11
         2337.,   9.667E-12
         2340.,   9.017E-12
         2342.,   8.422E-12
         2345.,   7.053E-12
         2347.,   4.970E-12
         2350.,   3.762E-12
         2353.,   3.053E-12
         2355.,   3.241E-12
         2357.,   3.813E-12
         2360.,   5.600E-12
         2362.,   6.289E-12
         2365.,   6.404E-12
         2368.,   7.629E-12
         2370.,   8.853E-12
         2373.,   8.548E-12
         2375.,   8.895E-12
         2377.,   1.051E-11
         2380.,   1.023E-11
         2383.,   9.340E-12
         2385.,   8.758E-12
         2387.,   8.379E-12
         2390.,   8.361E-12
         2393.,   8.343E-12
         2395.,   8.445E-12
         2397.,   7.670E-12
         2400.,   5.006E-12
         2403.,   4.430E-12
         2405.,   4.666E-12
         2407.,   3.042E-12
         2410.,   5.115E-13
         2413.,   1.321E-12
         2415.,   2.263E-12
         2417.,   3.372E-12
         2420.,   4.943E-12
         2423.,   7.334E-12
         2425.,   8.056E-12
         2427.,   8.244E-12
         2430.,   8.344E-12
         2433.,   8.444E-12
         2435.,   6.572E-12
         2437.,   5.089E-12
         2440.,   4.189E-12
         2443.,   4.623E-12
         2445.,   5.390E-12
         2448.,   6.432E-12
         2450.,   7.480E-12
         2452.,   7.802E-12
         2455.,   8.375E-12
         2457.,   9.179E-12
         2460.,   9.939E-12
         2463.,   1.064E-11
         2465.,   1.128E-11
         2467.,   1.141E-11
         2470.,   1.002E-11
         2473.,   8.948E-12
         2475.,   9.523E-12
         2477.,   9.780E-12
         2480.,   9.693E-12
         2483.,   1.051E-11
         2485.,   1.145E-11
         2487.,   9.229E-12
         2490.,   7.065E-12
         2493.,   8.269E-12
         2495.,   8.233E-12
         2497.,   7.372E-12
         2500.,   7.512E-12
         2502.,   8.577E-12
         2505.,   8.583E-12
         2507.,   8.714E-12
         2510.,   9.310E-12
         2513.,   9.775E-12
         2515.,   9.827E-12
         2518.,   8.848E-12
         2520.,   7.288E-12
         2522.,   6.705E-12
         2525.,   6.163E-12
         2527.,   7.480E-12
         2530.,   9.173E-12
         2532.,   1.118E-11
         2535.,   1.239E-11
         2538.,   1.323E-11
         2540.,   1.344E-11
         2542.,   1.323E-11
         2545.,   1.386E-11
         2548.,   1.415E-11
         2550.,   1.394E-11
         2552.,   1.363E-11
         2555.,   1.308E-11
         2558.,   1.287E-11
         2560.,   1.291E-11
         2562.,   1.367E-11
         2565.,   1.444E-11
         2567.,   1.526E-11
         2570.,   1.555E-11
         2573.,   1.492E-11
         2575.,   1.284E-11
         2577.,   1.031E-11
         2580.,   8.446E-12
         2582.,   7.007E-12
         2585.,   6.804E-12
         2587.,   7.786E-12
         2590.,   1.005E-11
         2593.,   1.156E-11
         2595.,   1.193E-11
         2598.,   1.170E-11
         2600.,   1.132E-11
         2602.,   1.002E-11
         2605.,   7.358E-12
         2607.,   7.930E-12
         2610.,   9.310E-12
         2612.,   1.126E-11
         2615.,   1.370E-11
         2618.,   1.818E-11
         2620.,   2.037E-11
         2622.,   2.044E-11
         2625.,   1.847E-11
         2627.,   1.391E-11
         2630.,   1.466E-11
         2633.,   1.697E-11
         2635.,   2.102E-11
         2638.,   2.596E-11
         2640.,   3.552E-11
         2642.,   3.709E-11
         2645.,   3.238E-11
         2647.,   3.086E-11
         2650.,   2.976E-11
         2652.,   2.697E-11
         2655.,   2.546E-11
         2657.,   3.083E-11
         2660.,   3.276E-11
         2662.,   3.239E-11
         2665.,   3.243E-11
         2667.,   3.284E-11
         2670.,   3.212E-11
         2673.,   3.131E-11
         2675.,   3.270E-11
         2677.,   3.314E-11
         2680.,   2.926E-11
         2682.,   2.979E-11
         2685.,   3.279E-11
         2687.,   3.261E-11
         2690.,   2.993E-11
         2692.,   3.545E-11
         2695.,   3.853E-11
         2698.,   3.449E-11
         2700.,   3.066E-11
         2702.,   2.773E-11
         2705.,   2.750E-11
         2707.,   2.908E-11
         2710.,   3.048E-11
         2713.,   3.189E-11
         2715.,   3.470E-11
         2718.,   3.368E-11
         2720.,   2.425E-11
         2722.,   2.192E-11
         2725.,   2.234E-11
         2727.,   2.307E-11
         2730.,   2.417E-11
         2732.,   2.982E-11
         2735.,   3.239E-11
         2737.,   3.102E-11
         2740.,   3.029E-11
         2742.,   3.071E-11
         2745.,   3.045E-11
         2747.,   3.004E-11
         2750.,   3.145E-11
         2753.,   3.286E-11
         2755.,   3.792E-11
         2758.,   4.136E-11
         2760.,   4.237E-11
         2762.,   4.263E-11
         2765.,   4.270E-11
         2767.,   4.362E-11
         2770.,   4.486E-11
         2772.,   4.605E-11
         2775.,   4.789E-11
         2778.,   5.034E-11
         2780.,   4.885E-11
         2782.,   4.237E-11
         2785.,   4.297E-11
         2787.,   4.856E-11
         2790.,   7.332E-11
         2793.,   9.914E-11
         2795.,   1.371E-10
         2798.,   1.749E-10
         2800.,   2.124E-10
         2802.,   1.983E-10
         2805.,   1.772E-10
         2807.,   1.416E-10
         2810.,   1.028E-10
         2812.,   6.516E-11
         2815.,   4.583E-11
         2817.,   3.869E-11
         2820.,   3.807E-11
         2823.,   4.348E-11
         2825.,   4.376E-11
         2827.,   4.420E-11
         2830.,   4.593E-11
         2833.,   4.680E-11
         2835.,   4.497E-11
         2838.,   4.544E-11
         2840.,   4.774E-11
         2842.,   5.153E-11
         2845.,   5.538E-11
         2847.,   5.701E-11
         2850.,   5.896E-11
         2852.,   6.252E-11
         2855.,   6.169E-11
         2858.,   5.879E-11
         2860.,   5.781E-11
         2862.,   5.809E-11
         2865.,   5.832E-11
         2867.,   5.888E-11
         2870.,   5.992E-11
         2873.,   6.289E-11
         2875.,   6.995E-11
         2878.,   6.810E-11
         2880.,   6.279E-11
         2883.,   6.121E-11
         2885.,   6.174E-11
         2887.,   5.811E-11
         2890.,   5.654E-11
         2892.,   5.893E-11
         2895.,   6.169E-11
         2898.,   6.539E-11
         2900.,   6.410E-11
         2903.,   6.091E-11
         2905.,   6.281E-11
         2907.,   6.470E-11
         2910.,   7.018E-11
         2913.,   7.632E-11
         2915.,   8.347E-11
         2918.,   8.658E-11
         2920.,   8.869E-11
         2923.,   8.533E-11
         2925.,   8.110E-11
         2927.,   8.607E-11
         2930.,   9.008E-11
         2932.,   9.286E-11
         2935.,   9.686E-11
         2938.,   1.031E-10
         2940.,   9.357E-11
         2942.,   8.010E-11
         2945.,   7.170E-11
         2948.,   6.343E-11
         2950.,   5.658E-11
         2952.,   5.972E-11
         2955.,   7.367E-11
         2958.,   7.624E-11
         2960.,   7.725E-11
         2963.,   7.534E-11
         2965.,   7.067E-11
         2967.,   5.792E-11
         2970.,   5.486E-11
         2972.,   5.826E-11
         2975.,   6.005E-11
         2978.,   6.036E-11
         2980.,   6.654E-11
         2983.,   7.323E-11
         2985.,   7.796E-11
         2987.,   8.287E-11
         2990.,   8.867E-11
         2993.,   9.144E-11
         2995.,   9.184E-11
         2998.,   8.858E-11
         3000.,   8.517E-11
         3003.,   8.325E-11
         3005.,   8.253E-11
         3007.,   8.435E-11
         3010.,   8.471E-11
         3012.,   8.438E-11
         3015.,   8.055E-11
         3018.,   7.439E-11
         3020.,   7.077E-11
         3023.,   6.941E-11
         3025.,   7.284E-11
         3027.,   7.905E-11
         3030.,   9.408E-11
         3032.,   1.064E-10
         3035.,   1.167E-10
         3038.,   1.157E-10
         3040.,   1.148E-10
         3043.,   1.069E-10
         3045.,   1.011E-10
         3048.,   9.937E-11
         3050.,   9.948E-11
         3052.,   1.002E-10
         3055.,   9.610E-11
         3058.,   8.926E-11
         3060.,   7.595E-11
         3063.,   6.861E-11
         3065.,   6.774E-11
         3067.,   7.069E-11
         3070.,   7.940E-11
         3073.,   8.812E-11
         3075.,   9.601E-11
         3077.,   9.766E-11
         3080.,   9.963E-11
         3083.,   1.092E-10
         3085.,   1.145E-10
         3087.,   1.143E-10
         3090.,   1.139E-10
         3092.,   1.135E-10
         3095.,   1.106E-10
         3098.,   1.090E-10
         3100.,   1.187E-10
         3103.,   1.284E-10
         3105.,   1.394E-10
         3107.,   1.524E-10
         3110.,   1.676E-10
         3112.,   1.690E-10
         3115.,   1.685E-10
         3118.,   1.594E-10
         3120.,   1.470E-10
         3123.,   1.351E-10
         3125.,   1.277E-10
         3127.,   1.246E-10
         3130.,   1.205E-10
         3132.,   1.153E-10
         3135.,   1.030E-10
         3138.,   9.073E-11
         3140.,   8.258E-11
         3143.,   7.872E-11
         3145.,   9.731E-11
         3147.,   1.194E-10
         3150.,   1.442E-10
         3152.,   1.539E-10
         3155.,   1.630E-10
         3157.,   1.580E-10
         3160.,   1.467E-10
         3163.,   1.244E-10
         3165.,   1.108E-10
         3167.,   1.031E-10
         3170.,   9.498E-11
         3173.,   8.658E-11
         3175.,   1.135E-10
         3177.,   1.330E-10
         3180.,   1.305E-10
         3183.,   1.344E-10
         3185.,   1.587E-10
         3187.,   1.575E-10
         3190.,   1.432E-10
         3192.,   1.609E-10
         3195.,   1.786E-10
         3198.,   1.823E-10
         3200.,   1.905E-10
         3202.,   1.883E-10
         3205.,   1.861E-10
         3208.,   1.839E-10
         3210.,   1.816E-10
         3212.,   1.794E-10
         3215.,   1.772E-10
         3217.,   1.750E-10
         3220.,   1.728E-10
         3223.,   1.790E-10
         3225.,   1.852E-10
         3227.,   1.914E-10
         3230.,   1.976E-10
         3233.,   2.038E-10
         3235.,   2.100E-10
         3237.,   2.162E-10
         3240.,   2.224E-10
         3260.,   1.994E-10
         3270.,   1.940E-10
         3280.,   2.052E-10
         3290.,   1.642E-10
         3300.,   1.922E-10
         3310.,   2.407E-10
         3320.,   2.366E-10
         3330.,   2.598E-10
         3340.,   2.816E-10
         3350.,   2.580E-10
         3360.,   2.557E-10
         3370.,   2.404E-10
         3380.,   2.737E-10
         3390.,   3.039E-10
         3400.,   2.562E-10
         3410.,   2.977E-10
         3420.,   3.752E-10
         3430.,   3.432E-10
         3440.,   3.115E-10
         3450.,   3.035E-10
         3460.,   3.213E-10
         3470.,   3.155E-10
         3480.,   3.448E-10
         3490.,   3.510E-10
         3500.,   3.708E-10
         3510.,   3.590E-10
         3520.,   3.397E-10
         3530.,   3.669E-10
         3540.,   4.300E-10
         3550.,   4.471E-10
         3560.,   3.964E-10
         3570.,   3.064E-10
         3580.,   2.623E-10
         3590.,   3.115E-10
         3600.,   3.602E-10
         3610.,   3.274E-10
         3620.,   4.169E-10
         3630.,   3.805E-10
         3640.,   3.660E-10
         3650.,   4.032E-10
         3660.,   4.139E-10
         3670.,   4.318E-10
         3680.,   4.491E-10
         3690.,   4.222E-10
         3700.,   4.184E-10
         3710.,   4.304E-10
         3720.,   1.687E-10
         3730.,   3.310E-10
         3740.,   3.605E-10
         3750.,   3.645E-10
         3760.,   3.685E-10
         3770.,   4.726E-10
         3780.,   4.889E-10
         3790.,   4.889E-10
         3800.,   5.561E-10
         3810.,   4.934E-10
         3820.,   4.167E-10
         3830.,   4.086E-10
         3840.,   4.468E-10
         3850.,   4.717E-10
         3860.,   4.565E-10
         3870.,   4.732E-10
         3880.,   4.835E-10
         3890.,   5.356E-10
         3900.,   4.927E-10
         3910.,   5.295E-10
         3920.,   5.660E-10
         3930.,   5.700E-10
         3940.,   5.670E-10
         3950.,   5.751E-10
         3960.,   5.820E-10
         3970.,   6.416E-10
         3980.,   8.372E-10
         3990.,   8.585E-10
         4000.,   8.963E-10
         4010.,   9.646E-10
         4020.,   9.048E-10
         4030.,   8.761E-10
         4040.,   9.868E-10
         4050.,    1.021E-9
         4060.,    1.038E-9
         4070.,   9.902E-10
         4080.,   9.425E-10
         4090.,    1.109E-9
         4100.,    1.099E-9
         4110.,    1.076E-9
         4120.,    1.137E-9
         4130.,    1.129E-9
         4140.,    1.132E-9
         4150.,    1.201E-9
         4160.,    1.185E-9
         4170.,    1.169E-9
         4180.,    1.150E-9
         4190.,    1.147E-9
         4200.,    1.153E-9
         4210.,    1.031E-9
         4220.,   7.965E-10
         4230.,   7.707E-10
         4240.,   7.452E-10
         4250.,   9.950E-10
         4260.,    1.058E-9
         4270.,    1.063E-9
         4280.,   9.681E-10
         4290.,    1.037E-9
         4300.,    1.101E-9
         4310.,    1.191E-9
         4320.,    1.322E-9
         4330.,    1.382E-9
         4340.,    1.354E-9
         4350.,    1.446E-9
         4360.,    1.452E-9
         4370.,    1.519E-9
         4380.,    1.483E-9
         4390.,    1.563E-9
         4400.,    1.643E-9
         4410.,    1.663E-9
         4420.,    1.635E-9
         4430.,    1.662E-9
         4440.,    1.833E-9
         4450.,    1.756E-9
         4460.,    1.810E-9
         4470.,    1.962E-9
         4480.,    2.059E-9
         4490.,    2.073E-9
         4500.,    2.150E-9
         4510.,    2.182E-9
         4520.,    2.191E-9
         4530.,    2.100E-9
         4540.,    2.211E-9
         4550.,    2.250E-9
         4560.,    2.289E-9
         4570.,    2.501E-9
         4580.,    2.496E-9
         4590.,    2.488E-9
         4600.,    2.533E-9
         4610.,    2.647E-9
         4620.,    2.602E-9
         4630.,    2.527E-9
         4640.,    2.468E-9
         4650.,    2.482E-9
         4660.,    2.552E-9
         4670.,    2.437E-9
         4680.,    2.507E-9
         4690.,    2.521E-9
         4700.,    2.545E-9
         4710.,    2.545E-9
         4720.,    2.546E-9
         4730.,    2.587E-9
         4740.,    2.546E-9
         4750.,    2.478E-9
         4760.,    2.227E-9
         4770.,    2.046E-9
         4780.,    2.182E-9
         4790.,    2.341E-9
         4800.,    2.325E-9
         4810.,    2.307E-9
         4820.,    2.325E-9
         4830.,    2.374E-9
         4840.,    2.291E-9
         4850.,    2.380E-9
         4860.,    2.404E-9
         4870.,    2.432E-9
         4880.,    2.460E-9
         4890.,    2.579E-9
         4900.,    2.618E-9
         4910.,    2.704E-9
         4920.,    2.728E-9
         4930.,    2.821E-9
         4940.,    2.784E-9
         4950.,    2.564E-9
         4960.,    2.303E-9
         4970.,    2.419E-9
         4980.,    2.402E-9
         4990.,    2.381E-9
         5000.,    2.336E-9
         5010.,    2.298E-9
         5020.,    2.313E-9
         5030.,    2.375E-9
         5040.,    2.437E-9
         5050.,    2.479E-9
         5060.,    2.387E-9
         5070.,    2.357E-9
         5080.,    2.415E-9
         5090.,    2.394E-9
         5100.,    2.349E-9
         5110.,    2.423E-9
         5120.,    2.474E-9
         5130.,    2.480E-9
         5140.,    2.471E-9
         5150.,    2.542E-9
         5160.,    2.391E-9
         5170.,    2.088E-9
         5180.,    2.156E-9
         5190.,    2.302E-9
         5200.,    2.446E-9
         5210.,    2.594E-9
         5220.,    2.975E-9
         5230.,    3.021E-9
         5240.,    3.025E-9
         5250.,    3.025E-9
         5260.,    2.828E-9
         5270.,    2.881E-9
         5280.,    3.245E-9
         5290.,    3.242E-9
         5300.,    3.291E-9
         5310.,    3.416E-9
         5320.,    3.271E-9
         5330.,    3.245E-9
         5340.,    3.332E-9
         5350.,    3.472E-9
         5360.,    3.610E-9
         5370.,    3.686E-9
         5380.,    3.851E-9
         5390.,    3.769E-9
         5400.,    3.608E-9
         5410.,    3.784E-9
         5420.,    4.032E-9
         5430.,    3.999E-9
         5440.,    3.866E-9
         5450.,    3.664E-9
         5460.,    3.534E-9
         5470.,    3.630E-9
         5480.,    3.733E-9
         5490.,    3.811E-9
         5500.,    3.704E-9
         5510.,    3.680E-9
         5520.,    3.656E-9
         5530.,    3.852E-9
         5540.,    3.878E-9
         5550.,    3.992E-9
         5560.,    3.886E-9
         5570.,    3.945E-9
         5580.,    3.837E-9
         5590.,    3.716E-9
         5600.,    3.659E-9
         5610.,    3.685E-9
         5620.,    3.804E-9
         5630.,    3.812E-9
         5640.,    3.834E-9
         5650.,    3.950E-9
         5660.,    4.080E-9
         5670.,    4.094E-9
         5680.,    4.107E-9
         5690.,    4.180E-9
         5700.,    4.307E-9
         5710.,    4.199E-9
         5720.,    4.335E-9
         5730.,    4.389E-9
         5740.,    4.551E-9
         5760.,    4.651E-9
         5780.,    4.578E-9
         5800.,    4.764E-9
         5820.,    4.692E-9
         5840.,    4.511E-9
         5860.,    4.157E-9
         5880.,    3.517E-9
         5900.,    3.437E-9
         5920.,    3.358E-9
         5940.,    4.217E-9
         5960.,    4.341E-9
         5980.,    4.431E-9
         6000.,    4.642E-9
         6020.,    4.773E-9
         6040.,    5.006E-9
         6060.,    5.120E-9
         6080.,    5.214E-9
         6100.,    5.198E-9
         6120.,    5.147E-9
         6140.,    5.002E-9
         6160.,    4.511E-9
         6180.,    4.285E-9
         6200.,    4.152E-9
         6220.,    4.000E-9
         6240.,    3.955E-9
         6260.,    4.061E-9
         6280.,    4.166E-9
         6300.,    4.854E-9
         6320.,    5.161E-9
         6340.,    5.299E-9
         6360.,    5.229E-9
         6380.,    5.219E-9
         6400.,    5.576E-9
         6420.,    5.765E-9
         6440.,    5.854E-9
         6460.,    6.130E-9
         6480.,    6.215E-9
         6500.,    6.278E-9
         6520.,    6.602E-9
         6540.,    6.619E-9
         6560.,    6.443E-9
         6580.,    6.456E-9
         6600.,    6.267E-9
         6620.,    6.185E-9
         6640.,    6.103E-9
         6660.,    5.701E-9
         6680.,    5.453E-9
         6700.,    5.218E-9
         6720.,    5.057E-9
         6740.,    4.980E-9
         6760.,    4.914E-9
         6780.,    4.758E-9
         6800.,    4.640E-9
         6820.,    4.705E-9
         6840.,    4.793E-9
         6860.,    4.781E-9
         6880.,    4.827E-9
         6900.,    5.210E-9
         6920.,    5.666E-9
         6940.,    6.041E-9
         6960.,    6.083E-9
         6980.,    6.175E-9
         7000.,    6.264E-9
         7020.,    6.762E-9
         7040.,    6.851E-9
         7060.,    6.622E-9
         7080.,    6.226E-9
         7100.,    6.035E-9
         7120.,    5.811E-9
         7140.,    5.600E-9
         7160.,    6.020E-9
         7180.,    6.078E-9
         7200.,    6.261E-9
         7220.,    6.462E-9
         7240.,    6.728E-9
         7260.,    7.126E-9
         7280.,    7.443E-9
         7300.,    7.801E-9
         7320.,    7.912E-9
         7340.,    7.987E-9
         7360.,    8.061E-9
         7380.,    8.413E-9
         7400.,    8.446E-9
         7420.,    8.545E-9
         7440.,    8.586E-9
         7460.,    8.686E-9
         7480.,    8.728E-9
         7500.,    8.736E-9
         7520.,    8.717E-9
         7540.,    8.815E-9
         7560.,    8.727E-9
         7580.,    7.973E-9
         7600.,    7.838E-9
         7620.,    9.597E-9
         7640.,    8.592E-9
         7660.,    8.204E-9
         7680.,    7.308E-9
         7700.,    7.564E-9
         7720.,    7.817E-9
         7740.,    7.870E-9
         7760.,    7.901E-9
         7780.,    8.131E-9
         7800.,    8.197E-9
         7820.,    8.223E-9
         7840.,    8.296E-9
         7860.,    8.465E-9
         7880.,    8.576E-9
         7900.,    8.561E-9
         7920.,    8.613E-9
         7940.,    8.757E-9
         7960.,    8.984E-9
         7980.,    9.058E-9
         8000.,    9.067E-9
         8020.,    9.177E-9
         8040.,    9.229E-9
         8060.,    9.406E-9
         8080.,    9.580E-9
         8100.,    9.204E-9
         8120.,    9.484E-9
         8140.,    9.241E-9
         8160.,    8.941E-9
         8180.,    8.733E-9
         8200.,    8.842E-9
         8220.,    8.975E-9
         8240.,    9.409E-9
         8260.,    9.410E-9
         8280.,    8.881E-9
         8300.,    8.914E-9
         8320.,    8.907E-9
         8340.,    8.960E-9
         8360.,    8.768E-9
         8380.,    9.032E-9
         8400.,    9.106E-9
         8420.,    8.886E-9
         8440.,    8.668E-9
         8460.,    8.707E-9
         8480.,    8.668E-9
         8500.,    8.528E-9
         8520.,    8.389E-9
         8540.,    8.379E-9
         8560.,    8.837E-9
         8580.,    8.850E-9
         8600.,    8.914E-9
         8620.,    8.879E-9
         8640.,    8.788E-9
         8660.,    8.359E-9
         8680.,    8.733E-9
         8700.,    8.712E-9
         8720.,    8.789E-9
         8740.,    9.172E-9
         8760.,    8.857E-9
         8780.,    8.758E-9
         8800.,    8.660E-9
         8820.,    9.001E-9
         8840.,    8.836E-9
         8860.,    8.944E-9
         8880.,    8.739E-9
         8900.,    8.650E-9
         8920.,    8.700E-9
         8940.,    8.561E-9
         8960.,    8.477E-9
         8980.,    8.436E-9
         9000.,    8.375E-9
         9020.,    8.875E-9
         9040.,    9.150E-9
         9060.,    8.726E-9
         9080.,    8.711E-9
         9100.,    9.146E-9
         9120.,    8.852E-9
         9140.,    8.721E-9
         9160.,    8.592E-9
         9180.,    8.924E-9
         9200.,    9.230E-9
         9220.,    9.074E-9
         9240.,    8.765E-9
         9260.,    8.568E-9
         9280.,    8.156E-9
         9300.,    7.824E-9
         9320.,    7.716E-9
         9340.,    8.462E-9
         9360.,    8.287E-9
         9380.,    8.603E-9
         9400.,    9.147E-9
         9420.,    8.048E-9
         9440.,    7.870E-9
         9460.,    8.674E-9
         9480.,    8.565E-9
         9500.,    8.309E-9
         9520.,    8.055E-9
         9540.,    8.510E-9
         9560.,    8.543E-9
         9580.,    8.456E-9
         9600.,    8.276E-9
         9620.,    8.456E-9
         9640.,    8.322E-9
         9660.,    8.660E-9
         9680.,    8.761E-9
         9700.,    8.389E-9
         9720.,    8.186E-9
         9740.,    8.311E-9
         9760.,    8.588E-9
         9780.,    8.711E-9
         9800.,    8.640E-9
         9820.,    8.878E-9
         9840.,    8.788E-9
         9860.,    8.777E-9
         9880.,    8.765E-9
         9900.,    8.357E-9
         9920.,    8.246E-9
         9940.,    8.425E-9
         9960.,    8.326E-9
         9980.,    8.388E-9
        10000.,    8.350E-9
        10020.,    8.595E-9
        10040.,    8.281E-9
        10060.,    8.552E-9
        10080.,    8.614E-9
        10100.,    8.579E-9
        10120.,    8.527E-9
        10140.,    8.456E-9
        10160.,    8.509E-9
        10180.,    8.481E-9
        10200.,    8.373E-9
        10220.,    8.496E-9
        10240.,    8.618E-9
        10260.,    8.186E-9
        10280.,    8.349E-9
        10300.,    8.214E-9
        10320.,    8.082E-9
        10340.,    8.090E-9
        10360.,    8.015E-9
        10380.,    8.215E-9
        10400.,    8.143E-9
        10420.,    8.331E-9
        10440.,    8.300E-9
        10460.,    8.383E-9
        10480.,    8.179E-9
        10500.,    8.144E-9
        10520.,    8.514E-9
        10540.,    8.324E-9
        10560.,    8.374E-9
        10580.,    8.460E-9
        10600.,    8.210E-9
        10800.,    8.002E-9
        11000.,    7.757E-9
        11200.,    7.490E-9
        11400.,    7.220E-9
        11600.,    6.961E-9
        11800.,    6.726E-9
        12000.,    6.524E-9
        12200.,    6.367E-9
        12400.,    6.262E-9
        12600.,    6.244E-9
        12800.,    6.160E-9
        13000.,    5.948E-9
        13200.,    5.558E-9
        13400.,    5.124E-9
        13600.,    4.858E-9
        13800.,    4.698E-9
        14000.,    4.580E-9
        14200.,    4.477E-9
        14400.,    4.383E-9
        14600.,    4.301E-9
        14800.,    4.245E-9
        15000.,    4.224E-9
        15200.,    4.233E-9
        15400.,    4.264E-9
        15600.,    4.304E-9
        15800.,    4.343E-9
        16000.,    4.366E-9
        16200.,    4.357E-9
        16400.,    4.302E-9
        16600.,    4.192E-9
        16800.,    4.045E-9
        17000.,    3.885E-9
        17200.,    3.716E-9
        17400.,    3.536E-9
        17600.,    3.344E-9
        17800.,    3.152E-9
        18000.,    2.975E-9
        18200.,    2.825E-9
        18400.,    2.700E-9
        18600.,    2.595E-9
        18800.,    2.507E-9
        19000.,    2.431E-9
        19200.,    2.367E-9
        19400.,    2.311E-9
        19600.,    2.263E-9
        19800.,    2.220E-9
        20000.,    2.181E-9
        20200.,    2.145E-9
        20400.,    2.111E-9
        20600.,    2.079E-9
        20800.,    2.047E-9
        21000.,    2.016E-9
        21200.,    1.984E-9
        21400.,    1.953E-9
        21600.,    1.921E-9
        21800.,    1.889E-9
        22000.,    1.857E-9
        22200.,    1.825E-9
        22400.,    1.792E-9
        22600.,    1.760E-9
        22800.,    1.724E-9
        23000.,    1.680E-9
        23200.,    1.623E-9
        23400.,    1.558E-9
        23600.,    1.489E-9
        23800.,    1.421E-9
        24000.,    1.355E-9
        24200.,    1.292E-9
        24400.,    1.235E-9
        24600.,    1.184E-9
        24800.,    1.138E-9
        25000.,    1.098E-9
        25200.,    1.063E-9
        25400.,    1.031E-9
        25600.,    1.002E-9
