wavelength, flux
          229.,          0.
          234.,          0.
          243.,          0.
          252.,          0.
          256.,          0.
          260.,          0.
          266.,          0.
          275.,          0.
          283.,          0.
          293.,          0.
          301.,          0.
          309.,          0.
          325.,          0.
          342.,          0.
          351.,          0.
          356.,          0.
          365.,          0.
          375.,          0.
          384.,          0.
          400.,          0.
          415.,          0.
          425.,          0.
          445.,          0.
          472.,          0.
          494.,          0.
          506.,          0.
          516.,          0.
          540.,          0.
          564.,          0.
          587.,          0.
          612.,          0.
          640.,          0.
          671.,          0.
          705.,          0.
          736.,          0.
          770.,          0.
          810.,          0.
          850.,          0.
          890.,          0.
          920.,          0.
          940.,          0.
          962.,          0.
          987.,          0.
         1012.,          0.
         1037.,          0.
         1062.,          0.
         1087.,          0.
         1112.,          0.
         1120.,          0.
         1140.,          0.
         1160.,          0.
         1180.,          0.
         1200.,          0.
         1220.,          0.
         1240.,          0.
         1260.,          0.
         1280.,          0.
         1300.,          0.
         1320.,          0.
         1340.,          0.
         1360.,          0.
         1380.,          0.
         1400.,          0.
         1420.,          0.
         1440.,          0.
         1460.,          0.
         1480.,          0.
         1500.,          0.
         1520.,          0.
         1540.,          0.
         1560.,          0.
         1580.,          0.
         1600.,          0.
         1620.,          0.
         1640.,          0.
         1660.,          0.
         1680.,          0.
         1700.,          0.
         1720.,          0.
         1740.,          0.
         1760.,          0.
         1780.,          0.
         1800.,          0.
         1820.,          0.
         1840.,          0.
         1860.,          0.
         1880.,          0.
         1900.,          0.
         1920.,          0.
         1940.,          0.
         1960.,          0.
         1980.,          0.
         2000.,   1.014E-12
         2002.,   1.014E-12
         2005.,   1.221E-12
         2008.,   1.011E-12
         2010.,   1.803E-12
         2012.,   2.072E-12
         2015.,   1.930E-12
         2018.,   1.827E-12
         2020.,   1.767E-12
         2022.,   9.297E-13
         2025.,   3.548E-13
         2027.,   7.284E-13
         2030.,   1.021E-12
         2032.,   9.920E-13
         2035.,   1.349E-12
         2038.,   1.963E-12
         2040.,   1.694E-12
         2042.,   1.425E-12
         2045.,   1.405E-12
         2048.,   1.542E-12
         2050.,   1.967E-12
         2052.,   2.186E-12
         2055.,   2.326E-12
         2058.,   2.064E-12
         2060.,   1.575E-12
         2062.,   1.778E-12
         2065.,   2.231E-12
         2067.,   3.076E-12
         2070.,   3.503E-12
         2072.,   2.856E-12
         2075.,   2.605E-12
         2077.,   2.600E-12
         2080.,   3.279E-12
         2082.,   3.957E-12
         2085.,   4.193E-12
         2088.,   4.161E-12
         2090.,   3.725E-12
         2092.,   3.482E-12
         2095.,   3.286E-12
         2098.,   3.148E-12
         2100.,   2.991E-12
         2102.,   2.530E-12
         2105.,   2.124E-12
         2107.,   1.786E-12
         2110.,   1.272E-12
         2112.,   4.431E-13
         2115.,   8.129E-13
         2118.,   1.479E-12
         2120.,   1.713E-12
         2122.,   1.979E-12
         2125.,   2.616E-12
         2128.,   3.164E-12
         2130.,   3.614E-12
         2133.,   3.877E-12
         2135.,   4.113E-12
         2138.,   4.273E-12
         2140.,   4.247E-12
         2142.,   3.559E-12
         2145.,   2.561E-12
         2147.,   1.356E-12
         2150.,   8.133E-13
         2153.,   8.818E-13
         2155.,   1.064E-12
         2157.,   1.093E-12
         2160.,   5.736E-13
         2162.,   2.727E-13
         2165.,   1.121E-12
         2168.,   1.497E-12
         2170.,   1.502E-12
         2173.,   1.370E-12
         2175.,   1.232E-12
         2177.,   1.011E-12
         2180.,   8.454E-13
         2182.,   8.501E-13
         2185.,   7.029E-13
         2187.,   5.301E-13
         2190.,   3.574E-13
         2193.,   1.847E-13
         2195.,   5.338E-13
         2198.,   8.829E-13
         2200.,   1.358E-12
         2202.,   1.720E-12
         2205.,   1.693E-12
         2208.,   1.713E-12
         2210.,   1.759E-12
         2213.,   1.470E-12
         2215.,   9.179E-13
         2218.,   9.631E-13
         2220.,   8.488E-13
         2222.,   4.067E-13
         2225.,   4.488E-14
         2227.,   6.732E-14
         2230.,   8.975E-14
         2233.,   1.122E-13
         2235.,   1.346E-13
         2237.,   1.571E-13
         2240.,   1.727E-13
         2242.,   5.412E-13
         2245.,   1.439E-12
         2248.,   1.877E-12
         2250.,   2.137E-12
         2253.,   2.473E-12
         2255.,   2.866E-12
         2257.,   3.584E-12
         2260.,   3.830E-12
         2262.,   3.475E-12
         2265.,   3.184E-12
         2267.,   3.005E-12
         2270.,   3.105E-12
         2273.,   3.303E-12
         2275.,   3.545E-12
         2277.,   3.749E-12
         2280.,   3.513E-12
         2282.,   3.163E-12
         2285.,   2.690E-12
         2288.,   2.101E-12
         2290.,   1.498E-12
         2293.,   1.274E-12
         2295.,   1.121E-12
         2298.,   7.977E-13
         2300.,   6.504E-13
         2302.,   6.659E-13
         2305.,   7.672E-13
         2307.,   9.780E-13
         2310.,   9.749E-13
         2313.,   9.863E-13
         2315.,   1.172E-12
         2317.,   1.403E-12
         2320.,   1.867E-12
         2322.,   2.677E-12
         2325.,   3.759E-12
         2327.,   4.358E-12
         2330.,   4.938E-12
         2333.,   5.399E-12
         2335.,   5.608E-12
         2337.,   5.212E-12
         2340.,   4.862E-12
         2342.,   4.541E-12
         2345.,   3.803E-12
         2347.,   2.680E-12
         2350.,   2.029E-12
         2353.,   1.646E-12
         2355.,   1.748E-12
         2357.,   2.056E-12
         2360.,   3.020E-12
         2362.,   3.391E-12
         2365.,   3.453E-12
         2368.,   4.113E-12
         2370.,   4.773E-12
         2373.,   4.609E-12
         2375.,   4.796E-12
         2377.,   5.668E-12
         2380.,   5.514E-12
         2383.,   5.036E-12
         2385.,   4.722E-12
         2387.,   4.518E-12
         2390.,   4.508E-12
         2393.,   4.498E-12
         2395.,   4.554E-12
         2397.,   4.135E-12
         2400.,   2.699E-12
         2403.,   2.389E-12
         2405.,   2.516E-12
         2407.,   1.640E-12
         2410.,   2.758E-13
         2413.,   7.124E-13
         2415.,   1.220E-12
         2417.,   1.818E-12
         2420.,   2.665E-12
         2423.,   3.954E-12
         2425.,   4.344E-12
         2427.,   4.445E-12
         2430.,   4.499E-12
         2433.,   4.553E-12
         2435.,   3.544E-12
         2437.,   2.744E-12
         2440.,   2.258E-12
         2443.,   2.492E-12
         2445.,   2.906E-12
         2448.,   3.468E-12
         2450.,   4.033E-12
         2452.,   4.207E-12
         2455.,   4.516E-12
         2457.,   4.949E-12
         2460.,   5.359E-12
         2463.,   5.739E-12
         2465.,   6.080E-12
         2467.,   6.154E-12
         2470.,   5.404E-12
         2473.,   4.824E-12
         2475.,   5.135E-12
         2477.,   5.273E-12
         2480.,   5.226E-12
         2483.,   5.666E-12
         2485.,   6.172E-12
         2487.,   4.976E-12
         2490.,   3.809E-12
         2493.,   4.459E-12
         2495.,   4.439E-12
         2497.,   3.975E-12
         2500.,   4.050E-12
         2502.,   4.625E-12
         2505.,   4.628E-12
         2507.,   4.698E-12
         2510.,   5.020E-12
         2513.,   5.271E-12
         2515.,   5.299E-12
         2518.,   4.771E-12
         2520.,   3.929E-12
         2522.,   3.615E-12
         2525.,   3.323E-12
         2527.,   4.033E-12
         2530.,   4.946E-12
         2532.,   6.028E-12
         2535.,   6.682E-12
         2538.,   7.134E-12
         2540.,   7.247E-12
         2542.,   7.134E-12
         2545.,   7.472E-12
         2548.,   7.630E-12
         2550.,   7.518E-12
         2552.,   7.347E-12
         2555.,   7.050E-12
         2558.,   6.941E-12
         2560.,   6.959E-12
         2562.,   7.371E-12
         2565.,   7.784E-12
         2567.,   8.226E-12
         2570.,   8.387E-12
         2573.,   8.046E-12
         2575.,   6.925E-12
         2577.,   5.558E-12
         2580.,   4.554E-12
         2582.,   3.778E-12
         2585.,   3.669E-12
         2587.,   4.198E-12
         2590.,   5.420E-12
         2593.,   6.233E-12
         2595.,   6.432E-12
         2598.,   6.308E-12
         2600.,   6.102E-12
         2602.,   5.404E-12
         2605.,   3.967E-12
         2607.,   4.276E-12
         2610.,   5.020E-12
         2612.,   6.070E-12
         2615.,   7.389E-12
         2618.,   9.805E-12
         2620.,   1.098E-11
         2622.,   1.102E-11
         2625.,   9.960E-12
         2627.,   7.498E-12
         2630.,   7.904E-12
         2633.,   9.152E-12
         2635.,   1.134E-11
         2638.,   1.400E-11
         2640.,   1.915E-11
         2642.,   2.000E-11
         2645.,   1.746E-11
         2647.,   1.664E-11
         2650.,   1.605E-11
         2652.,   1.454E-11
         2655.,   1.373E-11
         2657.,   1.662E-11
         2660.,   1.766E-11
         2662.,   1.747E-11
         2665.,   1.749E-11
         2667.,   1.771E-11
         2670.,   1.732E-11
         2673.,   1.688E-11
         2675.,   1.763E-11
         2677.,   1.787E-11
         2680.,   1.578E-11
         2682.,   1.606E-11
         2685.,   1.768E-11
         2687.,   1.758E-11
         2690.,   1.614E-11
         2692.,   1.911E-11
         2695.,   2.078E-11
         2698.,   1.859E-11
         2700.,   1.653E-11
         2702.,   1.495E-11
         2705.,   1.483E-11
         2707.,   1.568E-11
         2710.,   1.643E-11
         2713.,   1.719E-11
         2715.,   1.871E-11
         2718.,   1.816E-11
         2720.,   1.308E-11
         2722.,   1.182E-11
         2725.,   1.204E-11
         2727.,   1.244E-11
         2730.,   1.303E-11
         2732.,   1.608E-11
         2735.,   1.746E-11
         2737.,   1.672E-11
         2740.,   1.633E-11
         2742.,   1.656E-11
         2745.,   1.642E-11
         2747.,   1.619E-11
         2750.,   1.696E-11
         2753.,   1.772E-11
         2755.,   2.045E-11
         2758.,   2.230E-11
         2760.,   2.285E-11
         2762.,   2.299E-11
         2765.,   2.302E-11
         2767.,   2.352E-11
         2770.,   2.419E-11
         2772.,   2.483E-11
         2775.,   2.582E-11
         2778.,   2.714E-11
         2780.,   2.634E-11
         2782.,   2.285E-11
         2785.,   2.317E-11
         2787.,   2.619E-11
         2790.,   3.953E-11
         2793.,   5.345E-11
         2795.,   7.394E-11
         2798.,   9.429E-11
         2800.,   1.145E-10
         2802.,   1.069E-10
         2805.,   9.553E-11
         2807.,   7.636E-11
         2810.,   5.542E-11
         2812.,   3.513E-11
         2815.,   2.471E-11
         2817.,   2.086E-11
         2820.,   2.053E-11
         2823.,   2.344E-11
         2825.,   2.360E-11
         2827.,   2.383E-11
         2830.,   2.476E-11
         2833.,   2.523E-11
         2835.,   2.424E-11
         2838.,   2.450E-11
         2840.,   2.574E-11
         2842.,   2.778E-11
         2845.,   2.986E-11
         2847.,   3.074E-11
         2850.,   3.179E-11
         2852.,   3.371E-11
         2855.,   3.326E-11
         2858.,   3.170E-11
         2860.,   3.117E-11
         2862.,   3.132E-11
         2865.,   3.145E-11
         2867.,   3.175E-11
         2870.,   3.231E-11
         2873.,   3.391E-11
         2875.,   3.772E-11
         2878.,   3.672E-11
         2880.,   3.386E-11
         2883.,   3.301E-11
         2885.,   3.329E-11
         2887.,   3.133E-11
         2890.,   3.048E-11
         2892.,   3.178E-11
         2895.,   3.326E-11
         2898.,   3.526E-11
         2900.,   3.456E-11
         2903.,   3.284E-11
         2905.,   3.386E-11
         2907.,   3.489E-11
         2910.,   3.784E-11
         2913.,   4.115E-11
         2915.,   4.501E-11
         2918.,   4.668E-11
         2920.,   4.782E-11
         2923.,   4.601E-11
         2925.,   4.372E-11
         2927.,   4.641E-11
         2930.,   4.857E-11
         2932.,   5.007E-11
         2935.,   5.223E-11
         2938.,   5.557E-11
         2940.,   5.045E-11
         2942.,   4.319E-11
         2945.,   3.866E-11
         2948.,   3.420E-11
         2950.,   3.051E-11
         2952.,   3.220E-11
         2955.,   3.972E-11
         2958.,   4.111E-11
         2960.,   4.165E-11
         2963.,   4.062E-11
         2965.,   3.811E-11
         2967.,   3.123E-11
         2970.,   2.958E-11
         2972.,   3.141E-11
         2975.,   3.238E-11
         2978.,   3.254E-11
         2980.,   3.588E-11
         2983.,   3.949E-11
         2985.,   4.204E-11
         2987.,   4.468E-11
         2990.,   4.781E-11
         2993.,   4.931E-11
         2995.,   4.952E-11
         2998.,   4.776E-11
         3000.,   4.592E-11
         3003.,   4.489E-11
         3005.,   4.450E-11
         3007.,   4.548E-11
         3010.,   4.567E-11
         3012.,   4.550E-11
         3015.,   4.343E-11
         3018.,   4.011E-11
         3020.,   3.816E-11
         3023.,   3.742E-11
         3025.,   3.927E-11
         3027.,   4.262E-11
         3030.,   5.073E-11
         3032.,   5.735E-11
         3035.,   6.290E-11
         3038.,   6.240E-11
         3040.,   6.191E-11
         3043.,   5.766E-11
         3045.,   5.450E-11
         3048.,   5.358E-11
         3050.,   5.364E-11
         3052.,   5.400E-11
         3055.,   5.182E-11
         3058.,   4.813E-11
         3060.,   4.095E-11
         3063.,   3.700E-11
         3065.,   3.652E-11
         3067.,   3.812E-11
         3070.,   4.281E-11
         3073.,   4.751E-11
         3075.,   5.177E-11
         3077.,   5.266E-11
         3080.,   5.372E-11
         3083.,   5.890E-11
         3085.,   6.175E-11
         3087.,   6.161E-11
         3090.,   6.143E-11
         3092.,   6.117E-11
         3095.,   5.962E-11
         3098.,   5.879E-11
         3100.,   6.398E-11
         3103.,   6.922E-11
         3105.,   7.516E-11
         3107.,   8.218E-11
         3110.,   9.039E-11
         3112.,   9.112E-11
         3115.,   9.084E-11
         3118.,   8.592E-11
         3120.,   7.924E-11
         3123.,   7.283E-11
         3125.,   6.886E-11
         3127.,   6.717E-11
         3130.,   6.498E-11
         3132.,   6.215E-11
         3135.,   5.554E-11
         3138.,   4.892E-11
         3140.,   4.453E-11
         3143.,   4.244E-11
         3145.,   5.247E-11
         3147.,   6.437E-11
         3150.,   7.775E-11
         3152.,   8.300E-11
         3155.,   8.791E-11
         3157.,   8.520E-11
         3160.,   7.912E-11
         3163.,   6.707E-11
         3165.,   5.975E-11
         3167.,   5.557E-11
         3170.,   5.121E-11
         3173.,   4.668E-11
         3175.,   6.118E-11
         3177.,   7.172E-11
         3180.,   7.036E-11
         3183.,   7.247E-11
         3185.,   8.558E-11
         3187.,   8.491E-11
         3190.,   7.720E-11
         3192.,   8.674E-11
         3195.,   9.627E-11
         3198.,   9.828E-11
         3200.,   1.027E-10
         3202.,   1.015E-10
         3205.,   1.003E-10
         3208.,   9.914E-11
         3210.,   9.794E-11
         3212.,   9.674E-11
         3215.,   9.555E-11
         3217.,   9.435E-11
         3220.,   9.315E-11
         3223.,   9.650E-11
         3225.,   9.984E-11
         3227.,   1.032E-10
         3230.,   1.065E-10
         3233.,   1.099E-10
         3235.,   1.132E-10
         3237.,   1.166E-10
         3240.,   1.199E-10
         3260.,   6.831E-11
         3270.,   6.421E-11
         3280.,   3.158E-11
         3290.,   9.841E-11
         3300.,   1.306E-10
         3310.,   8.637E-11
         3320.,   1.456E-10
         3330.,   2.396E-10
         3340.,   1.127E-10
         3350.,   4.060E-11
         3360.,   1.107E-10
         3370.,   1.395E-10
         3380.,   1.877E-10
         3390.,   2.253E-10
         3400.,   1.941E-10
         3410.,   1.074E-10
         3420.,   7.866E-11
         3430.,   1.288E-10
         3440.,   2.294E-10
         3450.,   2.416E-10
         3460.,   1.498E-10
         3470.,   2.165E-10
         3480.,   1.852E-10
         3490.,   2.198E-10
         3500.,   2.010E-10
         3510.,   4.217E-10
         3520.,   2.347E-10
         3530.,   2.226E-10
         3540.,   3.366E-10
         3550.,   3.246E-10
         3560.,   2.986E-10
         3570.,   1.584E-10
         3580.,   2.918E-10
         3590.,   2.660E-10
         3600.,   1.798E-10
         3610.,   1.973E-10
         3620.,   2.564E-10
         3630.,   2.555E-10
         3640.,   2.015E-10
         3650.,   2.421E-10
         3660.,   2.151E-10
         3670.,   2.757E-10
         3680.,   2.898E-10
         3690.,   2.398E-10
         3700.,   2.061E-10
         3710.,   2.756E-10
         3720.,   7.137E-11
         3730.,   1.220E-10
         3740.,   1.721E-10
         3750.,   2.154E-10
         3760.,   3.019E-10
         3770.,   3.546E-10
         3780.,   4.308E-10
         3790.,   3.720E-10
         3800.,   2.776E-10
         3810.,   3.593E-10
         3820.,   3.129E-10
         3830.,   2.191E-10
         3840.,   2.152E-10
         3850.,   4.025E-10
         3860.,   3.546E-10
         3870.,   2.777E-10
         3880.,   3.747E-10
         3890.,   2.503E-10
         3900.,   4.855E-10
         3910.,   4.016E-10
         3920.,   3.099E-10
         3930.,   3.477E-10
         3940.,   4.129E-10
         3950.,   3.202E-10
         3960.,   4.131E-10
         3970.,   5.008E-10
         3980.,   7.201E-10
         3990.,   7.490E-10
         4000.,   7.397E-10
         4010.,   7.072E-10
         4020.,   6.611E-10
         4030.,   6.793E-10
         4040.,   6.913E-10
         4050.,   6.206E-10
         4060.,   8.369E-10
         4070.,   6.623E-10
         4080.,   7.448E-10
         4090.,   6.240E-10
         4100.,   6.993E-10
         4110.,   6.504E-10
         4120.,   5.928E-10
         4130.,   6.701E-10
         4140.,   5.357E-10
         4150.,   6.348E-10
         4160.,   6.904E-10
         4170.,   6.289E-10
         4180.,   6.844E-10
         4190.,   6.339E-10
         4200.,   5.582E-10
         4210.,   5.015E-10
         4220.,   2.902E-10
         4230.,   2.834E-10
         4240.,   3.977E-10
         4250.,   4.537E-10
         4260.,   4.961E-10
         4270.,   5.490E-10
         4280.,   5.751E-10
         4290.,   5.845E-10
         4300.,   6.327E-10
         4310.,   6.074E-10
         4320.,   6.420E-10
         4330.,   8.188E-10
         4340.,   7.480E-10
         4350.,   7.201E-10
         4360.,   7.168E-10
         4370.,   8.393E-10
         4380.,   7.414E-10
         4390.,   8.790E-10
         4400.,   9.268E-10
         4410.,   9.690E-10
         4420.,    1.086E-9
         4430.,    1.104E-9
         4440.,    1.117E-9
         4450.,    1.215E-9
         4460.,    1.285E-9
         4470.,    1.401E-9
         4480.,    1.543E-9
         4490.,    1.539E-9
         4500.,    1.563E-9
         4510.,    1.677E-9
         4520.,    1.633E-9
         4530.,    1.750E-9
         4540.,    1.822E-9
         4550.,    1.882E-9
         4560.,    2.072E-9
         4570.,    2.173E-9
         4580.,    2.075E-9
         4590.,    1.967E-9
         4600.,    2.018E-9
         4610.,    2.176E-9
         4620.,    2.199E-9
         4630.,    2.143E-9
         4640.,    2.070E-9
         4650.,    2.188E-9
         4660.,    2.338E-9
         4670.,    2.147E-9
         4680.,    2.071E-9
         4690.,    2.210E-9
         4700.,    2.294E-9
         4710.,    2.320E-9
         4720.,    2.190E-9
         4730.,    2.260E-9
         4740.,    2.298E-9
         4750.,    2.223E-9
         4760.,    1.906E-9
         4770.,    1.695E-9
         4780.,    1.781E-9
         4790.,    1.980E-9
         4800.,    1.869E-9
         4810.,    1.770E-9
         4820.,    1.913E-9
         4830.,    1.951E-9
         4840.,    2.020E-9
         4850.,    1.965E-9
         4860.,    1.996E-9
         4870.,    2.193E-9
         4880.,    2.243E-9
         4890.,    2.352E-9
         4900.,    2.496E-9
         4910.,    2.595E-9
         4920.,    2.707E-9
         4930.,    2.822E-9
         4940.,    2.666E-9
         4950.,    2.526E-9
         4960.,    1.894E-9
         4970.,    2.042E-9
         4980.,    2.167E-9
         4990.,    2.158E-9
         5000.,    1.978E-9
         5010.,    1.939E-9
         5020.,    2.134E-9
         5030.,    2.188E-9
         5040.,    2.290E-9
         5050.,    2.314E-9
         5060.,    2.324E-9
         5070.,    2.223E-9
         5080.,    2.416E-9
         5090.,    2.436E-9
         5100.,    2.392E-9
         5110.,    2.437E-9
         5120.,    2.422E-9
         5130.,    2.475E-9
         5140.,    2.449E-9
         5150.,    2.498E-9
         5160.,    2.314E-9
         5170.,    1.873E-9
         5180.,    1.984E-9
         5190.,    2.365E-9
         5200.,    2.293E-9
         5210.,    2.511E-9
         5220.,    3.040E-9
         5230.,    3.174E-9
         5240.,    3.179E-9
         5250.,    3.109E-9
         5260.,    3.072E-9
         5270.,    3.081E-9
         5280.,    3.370E-9
         5290.,    3.575E-9
         5300.,    3.458E-9
         5310.,    3.485E-9
         5320.,    3.386E-9
         5330.,    3.447E-9
         5340.,    3.611E-9
         5350.,    3.946E-9
         5360.,    3.837E-9
         5370.,    4.073E-9
         5380.,    4.323E-9
         5390.,    4.276E-9
         5400.,    4.178E-9
         5410.,    4.317E-9
         5420.,    4.654E-9
         5430.,    4.431E-9
         5440.,    4.494E-9
         5450.,    3.695E-9
         5460.,    3.446E-9
         5470.,    3.827E-9
         5480.,    3.832E-9
         5490.,    3.747E-9
         5500.,    3.540E-9
         5510.,    3.162E-9
         5520.,    3.342E-9
         5530.,    3.207E-9
         5540.,    3.188E-9
         5550.,    3.266E-9
         5560.,    3.516E-9
         5570.,    3.764E-9
         5580.,    4.000E-9
         5590.,    3.917E-9
         5600.,    3.748E-9
         5610.,    3.718E-9
         5620.,    3.768E-9
         5630.,    3.695E-9
         5640.,    3.830E-9
         5650.,    4.067E-9
         5660.,    4.145E-9
         5670.,    4.067E-9
         5680.,    4.213E-9
         5690.,    4.216E-9
         5700.,    4.538E-9
         5710.,    4.611E-9
         5720.,    4.627E-9
         5730.,    4.693E-9
         5740.,    4.981E-9
         5760.,    4.760E-9
         5780.,    4.855E-9
         5800.,    4.949E-9
         5820.,    4.722E-9
         5840.,    4.121E-9
         5860.,    3.391E-9
         5880.,    2.692E-9
         5900.,    2.679E-9
         5920.,    3.154E-9
         5940.,    3.610E-9
         5960.,    3.779E-9
         5980.,    3.868E-9
         6000.,    4.252E-9
         6020.,    4.466E-9
         6040.,    4.678E-9
         6060.,    4.892E-9
         6080.,    5.144E-9
         6100.,    5.328E-9
         6120.,    5.152E-9
         6140.,    4.730E-9
         6160.,    4.019E-9
         6180.,    3.373E-9
         6200.,    3.161E-9
         6220.,    3.053E-9
         6240.,    3.239E-9
         6260.,    3.728E-9
         6280.,    4.175E-9
         6300.,    4.919E-9
         6320.,    5.274E-9
         6340.,    5.791E-9
         6360.,    5.620E-9
         6380.,    5.660E-9
         6400.,    6.158E-9
         6420.,    6.754E-9
         6440.,    7.077E-9
         6460.,    7.630E-9
         6480.,    7.824E-9
         6500.,    8.305E-9
         6520.,    9.047E-9
         6540.,    8.968E-9
         6560.,    8.583E-9
         6580.,    8.377E-9
         6600.,    8.089E-9
         6620.,    7.754E-9
         6640.,    7.045E-9
         6660.,    6.701E-9
         6680.,    6.087E-9
         6700.,    5.687E-9
         6720.,    5.471E-9
         6740.,    5.423E-9
         6760.,    5.295E-9
         6780.,    5.260E-9
         6800.,    5.175E-9
         6820.,    5.322E-9
         6840.,    5.384E-9
         6860.,    5.293E-9
         6880.,    5.360E-9
         6900.,    5.833E-9
         6920.,    6.602E-9
         6940.,    7.327E-9
         6960.,    7.936E-9
         6980.,    8.189E-9
         7000.,    8.722E-9
         7020.,    9.691E-9
         7040.,    9.820E-9
         7060.,    9.222E-9
         7080.,    8.113E-9
         7100.,    7.673E-9
         7120.,    7.370E-9
         7140.,    6.794E-9
         7160.,    7.433E-9
         7180.,    8.170E-9
         7200.,    8.375E-9
         7220.,    9.125E-9
         7240.,    9.887E-9
         7260.,    1.072E-8
         7280.,    1.170E-8
         7300.,    1.250E-8
         7320.,    1.321E-8
         7340.,    1.357E-8
         7360.,    1.419E-8
         7380.,    1.474E-8
         7400.,    1.493E-8
         7420.,    1.497E-8
         7440.,    1.528E-8
         7460.,    1.547E-8
         7480.,    1.572E-8
         7500.,    1.571E-8
         7520.,    1.597E-8
         7540.,    1.606E-8
         7560.,    1.603E-8
         7580.,    1.461E-8
         7600.,    1.369E-8
         7620.,    1.598E-8
         7640.,    1.386E-8
         7660.,    1.228E-8
         7680.,    1.108E-8
         7700.,    1.186E-8
         7720.,    1.322E-8
         7740.,    1.327E-8
         7760.,    1.329E-8
         7780.,    1.373E-8
         7800.,    1.416E-8
         7820.,    1.446E-8
         7840.,    1.493E-8
         7860.,    1.513E-8
         7880.,    1.586E-8
         7900.,    1.598E-8
         7920.,    1.606E-8
         7940.,    1.649E-8
         7960.,    1.687E-8
         7980.,    1.752E-8
         8000.,    1.780E-8
         8020.,    1.830E-8
         8040.,    1.869E-8
         8060.,    1.895E-8
         8080.,    1.875E-8
         8100.,    1.909E-8
         8120.,    1.913E-8
         8140.,    1.926E-8
         8160.,    1.821E-8
         8180.,    1.723E-8
         8200.,    1.758E-8
         8220.,    1.923E-8
         8240.,    1.919E-8
         8260.,    1.956E-8
         8280.,    1.919E-8
         8300.,    1.813E-8
         8320.,    1.855E-8
         8340.,    1.807E-8
         8360.,    1.877E-8
         8380.,    1.903E-8
         8400.,    1.891E-8
         8420.,    1.830E-8
         8440.,    1.785E-8
         8460.,    1.787E-8
         8480.,    1.793E-8
         8500.,    1.743E-8
         8520.,    1.697E-8
         8540.,    1.788E-8
         8560.,    1.923E-8
         8580.,    1.889E-8
         8600.,    1.868E-8
         8620.,    1.914E-8
         8640.,    1.862E-8
         8660.,    1.847E-8
         8680.,    1.865E-8
         8700.,    1.857E-8
         8720.,    1.847E-8
         8740.,    1.837E-8
         8760.,    1.833E-8
         8780.,    1.873E-8
         8800.,    1.924E-8
         8820.,    1.901E-8
         8840.,    1.934E-8
         8860.,    1.901E-8
         8880.,    1.857E-8
         8900.,    1.911E-8
         8920.,    1.877E-8
         8940.,    1.924E-8
         8960.,    1.864E-8
         8980.,    1.897E-8
         9000.,    1.876E-8
         9020.,    1.952E-8
         9040.,    2.041E-8
         9060.,    1.969E-8
         9080.,    1.930E-8
         9100.,    2.012E-8
         9120.,    2.022E-8
         9140.,    2.004E-8
         9160.,    2.037E-8
         9180.,    2.123E-8
         9200.,    2.045E-8
         9220.,    2.018E-8
         9240.,    1.989E-8
         9260.,    1.897E-8
         9280.,    1.814E-8
         9300.,    1.706E-8
         9320.,    1.669E-8
         9340.,    1.808E-8
         9360.,    1.719E-8
         9380.,    1.836E-8
         9400.,    1.934E-8
         9420.,    1.795E-8
         9440.,    1.712E-8
         9460.,    1.846E-8
         9480.,    1.844E-8
         9500.,    1.795E-8
         9520.,    1.858E-8
         9540.,    1.892E-8
         9560.,    1.891E-8
         9580.,    1.915E-8
         9600.,    1.864E-8
         9620.,    1.962E-8
         9640.,    1.924E-8
         9660.,    2.021E-8
         9680.,    2.076E-8
         9700.,    2.003E-8
         9720.,    2.002E-8
         9740.,    1.989E-8
         9760.,    1.965E-8
         9780.,    1.973E-8
         9800.,    2.082E-8
         9820.,    2.130E-8
         9840.,    2.051E-8
         9860.,    2.080E-8
         9880.,    1.932E-8
         9900.,    1.873E-8
         9920.,    1.859E-8
         9940.,    1.919E-8
         9960.,    1.918E-8
         9980.,    2.032E-8
        10000.,    2.007E-8
        10020.,    1.950E-8
        10040.,    2.001E-8
        10060.,    2.048E-8
        10080.,    2.002E-8
        10100.,    2.029E-8
        10120.,    2.017E-8
        10140.,    2.013E-8
        10160.,    1.992E-8
        10180.,    2.003E-8
        10200.,    1.942E-8
        10220.,    2.014E-8
        10240.,    1.956E-8
        10260.,    1.957E-8
        10280.,    1.954E-8
        10300.,    1.937E-8
        10320.,    1.943E-8
        10340.,    1.951E-8
        10360.,    2.025E-8
        10380.,    1.927E-8
        10400.,    2.003E-8
        10420.,    1.999E-8
        10440.,    1.994E-8
        10460.,    1.970E-8
        10480.,    2.026E-8
        10500.,    2.102E-8
        10520.,    2.069E-8
        10540.,    2.078E-8
        10560.,    2.024E-8
        10580.,    2.050E-8
        10600.,    2.001E-8
        10800.,    1.949E-8
        11000.,    1.875E-8
        11200.,    1.787E-8
        11400.,    1.694E-8
        11600.,    1.604E-8
        11800.,    1.522E-8
        12000.,    1.453E-8
        12200.,    1.400E-8
        12400.,    1.368E-8
        12600.,    1.365E-8
        12800.,    1.352E-8
        13000.,    1.321E-8
        13200.,    1.264E-8
        13400.,    1.165E-8
        13600.,    9.931E-9
        13800.,    9.216E-9
        14000.,    9.199E-9
        14200.,    9.010E-9
        14400.,    8.713E-9
        14600.,    8.503E-9
        14800.,    8.408E-9
        15000.,    8.418E-9
        15200.,    8.505E-9
        15400.,    8.639E-9
        15600.,    8.788E-9
        15800.,    8.925E-9
        16000.,    9.021E-9
        16200.,    9.050E-9
        16400.,    8.984E-9
        16600.,    8.804E-9
        16800.,    8.535E-9
        17000.,    8.208E-9
        17200.,    7.831E-9
        17400.,    7.408E-9
        17600.,    6.948E-9
        17800.,    6.486E-9
        18000.,    6.064E-9
        18200.,    5.717E-9
        18400.,    5.441E-9
        18600.,    5.225E-9
        18800.,    5.054E-9
        19000.,    4.918E-9
        19200.,    4.810E-9
        19400.,    4.723E-9
        19600.,    4.651E-9
        19800.,    4.586E-9
        20000.,    4.522E-9
        20200.,    4.460E-9
        20400.,    4.400E-9
        20600.,    4.344E-9
        20800.,    4.292E-9
        21000.,    4.246E-9
        21200.,    4.206E-9
        21400.,    4.173E-9
        21600.,    4.146E-9
        21800.,    4.126E-9
        22000.,    4.109E-9
        22200.,    4.090E-9
        22400.,    4.068E-9
        22600.,    4.038E-9
        22800.,    3.992E-9
        23000.,    3.919E-9
        23200.,    3.813E-9
        23400.,    3.681E-9
        23600.,    3.537E-9
        23800.,    3.387E-9
        24000.,    3.226E-9
        24200.,    3.051E-9
        24400.,    2.868E-9
        24600.,    2.695E-9
        24800.,    2.549E-9
        25000.,    2.435E-9
        25200.,    2.346E-9
        25400.,    2.277E-9
        25600.,    2.220E-9
