wavelength, flux
          229.,          0.
          234.,          0.
          243.,          0.
          252.,          0.
          256.,          0.
          260.,          0.
          266.,          0.
          275.,          0.
          283.,          0.
          293.,          0.
          301.,          0.
          309.,          0.
          325.,          0.
          342.,          0.
          351.,          0.
          356.,          0.
          365.,          0.
          375.,          0.
          384.,          0.
          400.,          0.
          415.,          0.
          425.,          0.
          445.,          0.
          472.,          0.
          494.,          0.
          506.,          0.
          516.,          0.
          540.,          0.
          564.,          0.
          587.,          0.
          612.,          0.
          640.,          0.
          671.,          0.
          705.,          0.
          736.,          0.
          770.,          0.
          810.,          0.
          850.,          0.
          890.,          0.
          920.,          0.
          940.,          0.
          962.,          0.
          987.,          0.
         1012.,          0.
         1037.,          0.
         1062.,          0.
         1087.,          0.
         1112.,          0.
         1120.,          0.
         1140.,          0.
         1160.,          0.
         1180.,          0.
         1200.,          0.
         1220.,          0.
         1240.,          0.
         1260.,          0.
         1280.,          0.
         1300.,          0.
         1320.,          0.
         1340.,          0.
         1360.,          0.
         1380.,          0.
         1400.,          0.
         1420.,          0.
         1440.,          0.
         1460.,          0.
         1480.,          0.
         1500.,          0.
         1520.,          0.
         1540.,          0.
         1560.,          0.
         1580.,          0.
         1600.,          0.
         1620.,          0.
         1640.,          0.
         1660.,          0.
         1680.,          0.
         1700.,          0.
         1720.,          0.
         1740.,          0.
         1760.,          0.
         1780.,          0.
         1800.,          0.
         1820.,          0.
         1840.,          0.
         1860.,          0.
         1880.,          0.
         1900.,          0.
         1920.,          0.
         1940.,          0.
         1960.,          0.
         1980.,          0.
         2000.,   4.243E-12
         2002.,   4.243E-12
         2005.,   5.109E-12
         2008.,   4.232E-12
         2010.,   7.545E-12
         2012.,   8.669E-12
         2015.,   8.074E-12
         2018.,   7.645E-12
         2020.,   7.395E-12
         2022.,   3.890E-12
         2025.,   1.485E-12
         2027.,   3.048E-12
         2030.,   4.274E-12
         2032.,   4.151E-12
         2035.,   5.643E-12
         2038.,   8.212E-12
         2040.,   7.087E-12
         2042.,   5.962E-12
         2045.,   5.878E-12
         2048.,   6.452E-12
         2050.,   8.230E-12
         2052.,   9.149E-12
         2055.,   9.732E-12
         2058.,   8.634E-12
         2060.,   6.590E-12
         2062.,   7.439E-12
         2065.,   9.333E-12
         2067.,   1.287E-11
         2070.,   1.466E-11
         2072.,   1.195E-11
         2075.,   1.090E-11
         2077.,   1.088E-11
         2080.,   1.372E-11
         2082.,   1.656E-11
         2085.,   1.755E-11
         2088.,   1.741E-11
         2090.,   1.559E-11
         2092.,   1.457E-11
         2095.,   1.375E-11
         2098.,   1.317E-11
         2100.,   1.251E-11
         2102.,   1.059E-11
         2105.,   8.886E-12
         2107.,   7.474E-12
         2110.,   5.321E-12
         2112.,   1.854E-12
         2115.,   3.401E-12
         2118.,   6.188E-12
         2120.,   7.168E-12
         2122.,   8.282E-12
         2125.,   1.095E-11
         2128.,   1.324E-11
         2130.,   1.512E-11
         2133.,   1.622E-11
         2135.,   1.721E-11
         2138.,   1.788E-11
         2140.,   1.777E-11
         2142.,   1.489E-11
         2145.,   1.072E-11
         2147.,   5.674E-12
         2150.,   3.403E-12
         2153.,   3.690E-12
         2155.,   4.451E-12
         2157.,   4.575E-12
         2160.,   2.400E-12
         2162.,   1.141E-12
         2165.,   4.692E-12
         2168.,   6.265E-12
         2170.,   6.284E-12
         2173.,   5.731E-12
         2175.,   5.153E-12
         2177.,   4.231E-12
         2180.,   3.537E-12
         2182.,   3.557E-12
         2185.,   2.941E-12
         2187.,   2.218E-12
         2190.,   1.496E-12
         2193.,   7.727E-13
         2195.,   2.234E-12
         2198.,   3.695E-12
         2200.,   5.681E-12
         2202.,   7.198E-12
         2205.,   7.084E-12
         2208.,   7.167E-12
         2210.,   7.360E-12
         2213.,   6.151E-12
         2215.,   3.841E-12
         2218.,   4.030E-12
         2220.,   3.551E-12
         2222.,   1.702E-12
         2225.,   1.878E-13
         2227.,   2.817E-13
         2230.,   3.756E-13
         2233.,   4.694E-13
         2235.,   5.633E-13
         2237.,   6.572E-13
         2240.,   7.226E-13
         2242.,   2.265E-12
         2245.,   6.021E-12
         2248.,   7.856E-12
         2250.,   8.942E-12
         2253.,   1.035E-11
         2255.,   1.199E-11
         2257.,   1.500E-11
         2260.,   1.603E-11
         2262.,   1.454E-11
         2265.,   1.332E-11
         2267.,   1.257E-11
         2270.,   1.299E-11
         2273.,   1.382E-11
         2275.,   1.483E-11
         2277.,   1.569E-11
         2280.,   1.470E-11
         2282.,   1.324E-11
         2285.,   1.125E-11
         2288.,   8.793E-12
         2290.,   6.266E-12
         2293.,   5.329E-12
         2295.,   4.691E-12
         2298.,   3.338E-12
         2300.,   2.722E-12
         2302.,   2.786E-12
         2305.,   3.210E-12
         2307.,   4.092E-12
         2310.,   4.079E-12
         2313.,   4.127E-12
         2315.,   4.905E-12
         2317.,   5.870E-12
         2320.,   7.812E-12
         2322.,   1.120E-11
         2325.,   1.573E-11
         2327.,   1.824E-11
         2330.,   2.066E-11
         2333.,   2.259E-11
         2335.,   2.347E-11
         2337.,   2.181E-11
         2340.,   2.034E-11
         2342.,   1.900E-11
         2345.,   1.591E-11
         2347.,   1.121E-11
         2350.,   8.488E-12
         2353.,   6.888E-12
         2355.,   7.313E-12
         2357.,   8.603E-12
         2360.,   1.264E-11
         2362.,   1.419E-11
         2365.,   1.445E-11
         2368.,   1.721E-11
         2370.,   1.997E-11
         2373.,   1.929E-11
         2375.,   2.007E-11
         2377.,   2.372E-11
         2380.,   2.307E-11
         2383.,   2.107E-11
         2385.,   1.976E-11
         2387.,   1.890E-11
         2390.,   1.886E-11
         2393.,   1.882E-11
         2395.,   1.905E-11
         2397.,   1.730E-11
         2400.,   1.129E-11
         2403.,   9.995E-12
         2405.,   1.053E-11
         2407.,   6.864E-12
         2410.,   1.154E-12
         2413.,   2.981E-12
         2415.,   5.105E-12
         2417.,   7.608E-12
         2420.,   1.115E-11
         2423.,   1.655E-11
         2425.,   1.818E-11
         2427.,   1.860E-11
         2430.,   1.882E-11
         2433.,   1.905E-11
         2435.,   1.483E-11
         2437.,   1.148E-11
         2440.,   9.450E-12
         2443.,   1.043E-11
         2445.,   1.216E-11
         2448.,   1.451E-11
         2450.,   1.688E-11
         2452.,   1.760E-11
         2455.,   1.889E-11
         2457.,   2.071E-11
         2460.,   2.242E-11
         2463.,   2.401E-11
         2465.,   2.544E-11
         2467.,   2.575E-11
         2470.,   2.261E-11
         2473.,   2.019E-11
         2475.,   2.148E-11
         2477.,   2.207E-11
         2480.,   2.187E-11
         2483.,   2.371E-11
         2485.,   2.582E-11
         2487.,   2.082E-11
         2490.,   1.594E-11
         2493.,   1.866E-11
         2495.,   1.858E-11
         2497.,   1.663E-11
         2500.,   1.695E-11
         2502.,   1.935E-11
         2505.,   1.936E-11
         2507.,   1.966E-11
         2510.,   2.100E-11
         2513.,   2.205E-11
         2515.,   2.217E-11
         2518.,   1.996E-11
         2520.,   1.644E-11
         2522.,   1.513E-11
         2525.,   1.390E-11
         2527.,   1.688E-11
         2530.,   2.070E-11
         2532.,   2.523E-11
         2535.,   2.796E-11
         2538.,   2.985E-11
         2540.,   3.032E-11
         2542.,   2.985E-11
         2545.,   3.127E-11
         2548.,   3.193E-11
         2550.,   3.146E-11
         2552.,   3.074E-11
         2555.,   2.950E-11
         2558.,   2.905E-11
         2560.,   2.912E-11
         2562.,   3.084E-11
         2565.,   3.257E-11
         2567.,   3.442E-11
         2570.,   3.509E-11
         2573.,   3.367E-11
         2575.,   2.898E-11
         2577.,   2.326E-11
         2580.,   1.906E-11
         2582.,   1.581E-11
         2585.,   1.535E-11
         2587.,   1.757E-11
         2590.,   2.268E-11
         2593.,   2.608E-11
         2595.,   2.691E-11
         2598.,   2.639E-11
         2600.,   2.553E-11
         2602.,   2.261E-11
         2605.,   1.660E-11
         2607.,   1.789E-11
         2610.,   2.100E-11
         2612.,   2.540E-11
         2615.,   3.092E-11
         2618.,   4.103E-11
         2620.,   4.596E-11
         2622.,   4.612E-11
         2625.,   4.168E-11
         2627.,   3.138E-11
         2630.,   3.307E-11
         2633.,   3.830E-11
         2635.,   4.743E-11
         2638.,   5.856E-11
         2640.,   8.013E-11
         2642.,   8.368E-11
         2645.,   7.306E-11
         2647.,   6.962E-11
         2650.,   6.715E-11
         2652.,   6.084E-11
         2655.,   5.745E-11
         2657.,   6.956E-11
         2660.,   7.391E-11
         2662.,   7.308E-11
         2665.,   7.317E-11
         2667.,   7.409E-11
         2670.,   7.247E-11
         2673.,   7.064E-11
         2675.,   7.376E-11
         2677.,   7.477E-11
         2680.,   6.602E-11
         2682.,   6.720E-11
         2685.,   7.398E-11
         2687.,   7.358E-11
         2690.,   6.753E-11
         2692.,   7.998E-11
         2695.,   8.693E-11
         2698.,   7.781E-11
         2700.,   6.918E-11
         2702.,   6.257E-11
         2705.,   6.205E-11
         2707.,   6.560E-11
         2710.,   6.877E-11
         2713.,   7.194E-11
         2715.,   7.829E-11
         2718.,   7.598E-11
         2720.,   5.471E-11
         2722.,   4.944E-11
         2725.,   5.040E-11
         2727.,   5.205E-11
         2730.,   5.452E-11
         2732.,   6.728E-11
         2735.,   7.307E-11
         2737.,   6.998E-11
         2740.,   6.834E-11
         2742.,   6.929E-11
         2745.,   6.871E-11
         2747.,   6.777E-11
         2750.,   7.096E-11
         2753.,   7.415E-11
         2755.,   8.555E-11
         2758.,   9.331E-11
         2760.,   9.560E-11
         2762.,   9.618E-11
         2765.,   9.634E-11
         2767.,   9.841E-11
         2770.,   1.012E-10
         2772.,   1.039E-10
         2775.,   1.081E-10
         2778.,   1.136E-10
         2780.,   1.102E-10
         2782.,   9.559E-11
         2785.,   9.694E-11
         2787.,   1.096E-10
         2790.,   1.654E-10
         2793.,   2.237E-10
         2795.,   3.094E-10
         2798.,   3.945E-10
         2800.,   4.791E-10
         2802.,   4.474E-10
         2805.,   3.997E-10
         2807.,   3.195E-10
         2810.,   2.319E-10
         2812.,   1.470E-10
         2815.,   1.034E-10
         2817.,   8.728E-11
         2820.,   8.590E-11
         2823.,   9.810E-11
         2825.,   9.873E-11
         2827.,   9.973E-11
         2830.,   1.036E-10
         2833.,   1.056E-10
         2835.,   1.014E-10
         2838.,   1.025E-10
         2840.,   1.077E-10
         2842.,   1.163E-10
         2845.,   1.249E-10
         2847.,   1.286E-10
         2850.,   1.330E-10
         2852.,   1.410E-10
         2855.,   1.392E-10
         2858.,   1.326E-10
         2860.,   1.304E-10
         2862.,   1.311E-10
         2865.,   1.316E-10
         2867.,   1.328E-10
         2870.,   1.352E-10
         2873.,   1.419E-10
         2875.,   1.578E-10
         2878.,   1.537E-10
         2880.,   1.417E-10
         2883.,   1.381E-10
         2885.,   1.393E-10
         2887.,   1.311E-10
         2890.,   1.276E-10
         2892.,   1.330E-10
         2895.,   1.392E-10
         2898.,   1.475E-10
         2900.,   1.446E-10
         2903.,   1.374E-10
         2905.,   1.417E-10
         2907.,   1.460E-10
         2910.,   1.583E-10
         2913.,   1.722E-10
         2915.,   1.883E-10
         2918.,   1.953E-10
         2920.,   2.001E-10
         2923.,   1.925E-10
         2925.,   1.830E-10
         2927.,   1.942E-10
         2930.,   2.032E-10
         2932.,   2.095E-10
         2935.,   2.185E-10
         2938.,   2.325E-10
         2940.,   2.111E-10
         2942.,   1.807E-10
         2945.,   1.618E-10
         2948.,   1.431E-10
         2950.,   1.277E-10
         2952.,   1.347E-10
         2955.,   1.662E-10
         2958.,   1.720E-10
         2960.,   1.743E-10
         2963.,   1.700E-10
         2965.,   1.594E-10
         2967.,   1.307E-10
         2970.,   1.238E-10
         2972.,   1.315E-10
         2975.,   1.355E-10
         2978.,   1.362E-10
         2980.,   1.501E-10
         2983.,   1.652E-10
         2985.,   1.759E-10
         2987.,   1.870E-10
         2990.,   2.001E-10
         2993.,   2.063E-10
         2995.,   2.072E-10
         2998.,   1.998E-10
         3000.,   1.921E-10
         3003.,   1.878E-10
         3005.,   1.862E-10
         3007.,   1.903E-10
         3010.,   1.911E-10
         3012.,   1.904E-10
         3015.,   1.817E-10
         3018.,   1.678E-10
         3020.,   1.597E-10
         3023.,   1.566E-10
         3025.,   1.643E-10
         3027.,   1.783E-10
         3030.,   2.123E-10
         3032.,   2.400E-10
         3035.,   2.632E-10
         3038.,   2.611E-10
         3040.,   2.590E-10
         3043.,   2.413E-10
         3045.,   2.281E-10
         3048.,   2.242E-10
         3050.,   2.244E-10
         3052.,   2.260E-10
         3055.,   2.168E-10
         3058.,   2.014E-10
         3060.,   1.714E-10
         3063.,   1.548E-10
         3065.,   1.528E-10
         3067.,   1.595E-10
         3070.,   1.791E-10
         3073.,   1.988E-10
         3075.,   2.166E-10
         3077.,   2.203E-10
         3080.,   2.248E-10
         3083.,   2.465E-10
         3085.,   2.584E-10
         3087.,   2.578E-10
         3090.,   2.570E-10
         3092.,   2.560E-10
         3095.,   2.495E-10
         3098.,   2.460E-10
         3100.,   2.677E-10
         3103.,   2.896E-10
         3105.,   3.145E-10
         3107.,   3.439E-10
         3110.,   3.782E-10
         3112.,   3.813E-10
         3115.,   3.801E-10
         3118.,   3.595E-10
         3120.,   3.316E-10
         3123.,   3.047E-10
         3125.,   2.882E-10
         3127.,   2.811E-10
         3130.,   2.719E-10
         3132.,   2.601E-10
         3135.,   2.324E-10
         3138.,   2.047E-10
         3140.,   1.863E-10
         3143.,   1.776E-10
         3145.,   2.196E-10
         3147.,   2.694E-10
         3150.,   3.253E-10
         3152.,   3.473E-10
         3155.,   3.678E-10
         3157.,   3.565E-10
         3160.,   3.311E-10
         3163.,   2.806E-10
         3165.,   2.500E-10
         3167.,   2.325E-10
         3170.,   2.143E-10
         3173.,   1.953E-10
         3175.,   2.560E-10
         3177.,   3.001E-10
         3180.,   2.944E-10
         3183.,   3.032E-10
         3185.,   3.581E-10
         3187.,   3.553E-10
         3190.,   3.231E-10
         3192.,   3.629E-10
         3195.,   4.028E-10
         3198.,   4.112E-10
         3200.,   4.298E-10
         3202.,   4.248E-10
         3205.,   4.198E-10
         3208.,   4.148E-10
         3210.,   4.098E-10
         3212.,   4.048E-10
         3215.,   3.998E-10
         3217.,   3.948E-10
         3220.,   3.898E-10
         3223.,   4.038E-10
         3225.,   4.178E-10
         3227.,   4.317E-10
         3230.,   4.457E-10
         3233.,   4.597E-10
         3235.,   4.737E-10
         3237.,   4.877E-10
         3240.,   5.016E-10
         3260.,   4.498E-10
         3270.,    2.061E-9
         3280.,   1.808E-10
         3290.,   9.640E-10
         3300.,    1.333E-9
         3310.,   4.369E-10
         3320.,   7.253E-10
         3330.,    1.007E-9
         3340.,   4.357E-10
         3350.,   4.261E-10
         3360.,   7.288E-10
         3370.,   5.097E-10
         3380.,   3.992E-10
         3390.,   4.894E-10
         3400.,   9.582E-10
         3410.,   3.804E-10
         3420.,   4.747E-10
         3430.,   5.667E-10
         3440.,   1.883E-10
         3450.,   7.522E-10
         3460.,    1.022E-9
         3470.,   3.627E-10
         3480.,    1.090E-9
         3490.,   4.155E-10
         3500.,   4.781E-10
         3510.,   8.402E-10
         3520.,   1.206E-10
         3530.,    1.442E-9
         3540.,   4.794E-10
         3550.,   4.777E-10
         3560.,    2.144E-9
         3570.,   8.336E-10
         3580.,   8.360E-10
         3590.,   4.790E-10
         3600.,    1.080E-9
         3610.,   7.239E-10
         3620.,   3.990E-10
         3630.,   2.837E-10
         3640.,   3.705E-10
         3650.,   7.116E-10
         3660.,   3.561E-10
         3670.,   5.265E-10
         3680.,   6.931E-10
         3690.,   5.617E-10
         3700.,   6.558E-10
         3710.,   1.067E-10
         3720.,   3.138E-10
         3730.,   5.164E-10
         3740.,    1.333E-9
         3750.,   6.106E-10
         3760.,   7.070E-10
         3770.,    1.196E-9
         3780.,   6.124E-10
         3790.,   7.796E-10
         3800.,   6.847E-10
         3810.,   5.034E-10
         3820.,    1.295E-9
         3830.,    1.702E-9
         3840.,   8.641E-10
         3850.,   7.029E-10
         3860.,   2.742E-10
         3870.,   6.033E-10
         3880.,   7.197E-10
         3890.,   6.401E-10
         3900.,   3.767E-10
         3910.,   3.689E-10
         3920.,    1.385E-9
         3930.,    1.702E-9
         3940.,    1.560E-9
         3950.,   9.021E-10
         3960.,    1.260E-9
         3970.,    1.749E-9
         3980.,    1.955E-9
         3990.,    1.590E-9
         4000.,    1.141E-9
         4010.,   7.998E-10
         4020.,    1.249E-9
         4030.,   5.098E-10
         4040.,   6.847E-10
         4050.,   6.941E-10
         4060.,   9.239E-10
         4070.,   8.145E-10
         4080.,    1.018E-9
         4090.,   8.574E-10
         4100.,    1.257E-9
         4110.,    1.240E-9
         4120.,   9.239E-10
         4130.,   6.405E-10
         4140.,    1.070E-9
         4150.,   7.480E-10
         4160.,   7.535E-10
         4170.,   7.258E-10
         4180.,   6.992E-10
         4190.,   7.432E-10
         4200.,   5.533E-10
         4210.,   8.189E-10
         4220.,   6.106E-10
         4230.,   3.846E-10
         4240.,   6.023E-10
         4250.,   5.911E-10
         4260.,   6.076E-10
         4270.,   6.868E-10
         4280.,   7.055E-10
         4290.,   7.277E-10
         4300.,   6.315E-10
         4310.,   8.425E-10
         4320.,   9.189E-10
         4330.,    1.234E-9
         4340.,    1.296E-9
         4350.,    1.495E-9
         4360.,   9.855E-10
         4370.,    1.025E-9
         4380.,    1.106E-9
         4390.,   8.509E-10
         4400.,   9.715E-10
         4410.,    1.432E-9
         4420.,    1.539E-9
         4430.,    1.025E-9
         4440.,    1.536E-9
         4450.,    1.588E-9
         4460.,    1.561E-9
         4470.,    1.781E-9
         4480.,    1.841E-9
         4490.,    2.150E-9
         4500.,    1.934E-9
         4510.,    2.212E-9
         4520.,    2.184E-9
         4530.,    2.354E-9
         4540.,    2.402E-9
         4550.,    2.461E-9
         4560.,    2.709E-9
         4570.,    3.074E-9
         4580.,    2.638E-9
         4590.,    2.585E-9
         4600.,    2.550E-9
         4610.,    2.902E-9
         4620.,    2.767E-9
         4630.,    2.655E-9
         4640.,    2.391E-9
         4650.,    2.696E-9
         4660.,    2.849E-9
         4670.,    2.600E-9
         4680.,    2.367E-9
         4690.,    2.714E-9
         4700.,    2.840E-9
         4710.,    2.809E-9
         4720.,    2.874E-9
         4730.,    3.009E-9
         4740.,    2.998E-9
         4750.,    3.081E-9
         4760.,    2.363E-9
         4770.,    1.971E-9
         4780.,    2.306E-9
         4790.,    2.624E-9
         4800.,    2.129E-9
         4810.,    2.064E-9
         4820.,    2.237E-9
         4830.,    2.499E-9
         4840.,    2.388E-9
         4850.,    2.487E-9
         4860.,    3.156E-9
         4870.,    2.782E-9
         4880.,    3.167E-9
         4890.,    2.932E-9
         4900.,    3.241E-9
         4910.,    3.075E-9
         4920.,    3.825E-9
         4930.,    4.202E-9
         4940.,    4.054E-9
         4950.,    3.642E-9
         4960.,    2.565E-9
         4970.,    2.530E-9
         4980.,    2.882E-9
         4990.,    2.901E-9
         5000.,    2.634E-9
         5010.,    2.560E-9
         5020.,    2.490E-9
         5030.,    2.891E-9
         5040.,    3.351E-9
         5050.,    3.261E-9
         5060.,    3.074E-9
         5070.,    3.117E-9
         5080.,    3.292E-9
         5090.,    3.313E-9
         5100.,    3.263E-9
         5110.,    3.472E-9
         5120.,    3.364E-9
         5130.,    3.621E-9
         5140.,    3.538E-9
         5150.,    3.585E-9
         5160.,    3.531E-9
         5170.,    2.530E-9
         5180.,    2.028E-9
         5190.,    2.446E-9
         5200.,    2.768E-9
         5210.,    2.980E-9
         5220.,    3.582E-9
         5230.,    4.077E-9
         5240.,    3.910E-9
         5250.,    3.844E-9
         5260.,    3.835E-9
         5270.,    3.887E-9
         5280.,    4.132E-9
         5290.,    3.983E-9
         5300.,    4.358E-9
         5310.,    4.323E-9
         5320.,    4.160E-9
         5330.,    4.272E-9
         5340.,    4.426E-9
         5350.,    4.597E-9
         5360.,    4.824E-9
         5370.,    4.733E-9
         5380.,    5.121E-9
         5390.,    5.272E-9
         5400.,    5.266E-9
         5410.,    5.316E-9
         5420.,    5.551E-9
         5430.,    5.518E-9
         5440.,    5.454E-9
         5450.,    4.269E-9
         5460.,    3.508E-9
         5470.,    3.674E-9
         5480.,    3.795E-9
         5490.,    3.974E-9
         5500.,    3.222E-9
         5510.,    2.750E-9
         5520.,    2.268E-9
         5530.,    2.132E-9
         5540.,    2.034E-9
         5550.,    1.881E-9
         5560.,    2.392E-9
         5570.,    2.898E-9
         5580.,    3.293E-9
         5590.,    3.654E-9
         5600.,    3.445E-9
         5610.,    3.359E-9
         5620.,    3.272E-9
         5630.,    3.089E-9
         5640.,    3.226E-9
         5650.,    3.241E-9
         5660.,    3.656E-9
         5670.,    3.382E-9
         5680.,    3.652E-9
         5690.,    3.901E-9
         5700.,    4.120E-9
         5710.,    4.046E-9
         5720.,    4.014E-9
         5730.,    4.163E-9
         5740.,    4.285E-9
         5760.,    4.307E-9
         5780.,    4.276E-9
         5800.,    4.681E-9
         5820.,    4.662E-9
         5840.,    3.831E-9
         5860.,    3.167E-9
         5880.,    2.477E-9
         5900.,    2.052E-9
         5920.,    2.186E-9
         5940.,    2.498E-9
         5960.,    2.864E-9
         5980.,    2.682E-9
         6000.,    2.860E-9
         6020.,    3.097E-9
         6040.,    3.479E-9
         6060.,    3.804E-9
         6080.,    3.653E-9
         6100.,    3.926E-9
         6120.,    3.623E-9
         6140.,    3.033E-9
         6160.,    2.657E-9
         6180.,    2.291E-9
         6200.,    2.163E-9
         6220.,    1.991E-9
         6240.,    2.063E-9
         6260.,    2.218E-9
         6280.,    2.624E-9
         6300.,    3.100E-9
         6320.,    3.674E-9
         6340.,    4.527E-9
         6360.,    4.633E-9
         6380.,    4.531E-9
         6400.,    5.015E-9
         6420.,    5.506E-9
         6440.,    5.802E-9
         6460.,    6.111E-9
         6480.,    6.496E-9
         6500.,    6.845E-9
         6520.,    8.173E-9
         6540.,    8.627E-9
         6560.,    8.976E-9
         6580.,    7.851E-9
         6600.,    6.540E-9
         6620.,    6.165E-9
         6640.,    5.607E-9
         6660.,    5.157E-9
         6680.,    4.635E-9
         6700.,    4.442E-9
         6720.,    4.151E-9
         6740.,    4.138E-9
         6760.,    4.297E-9
         6780.,    4.282E-9
         6800.,    4.227E-9
         6820.,    4.600E-9
         6840.,    4.732E-9
         6860.,    4.823E-9
         6880.,    4.806E-9
         6900.,    5.251E-9
         6920.,    5.958E-9
         6940.,    6.751E-9
         6960.,    7.346E-9
         6980.,    7.771E-9
         7000.,    8.370E-9
         7020.,    9.362E-9
         7040.,    1.047E-8
         7060.,    8.861E-9
         7080.,    6.462E-9
         7100.,    5.894E-9
         7120.,    5.602E-9
         7140.,    5.283E-9
         7160.,    5.536E-9
         7180.,    6.124E-9
         7200.,    6.479E-9
         7220.,    6.872E-9
         7240.,    8.172E-9
         7260.,    9.458E-9
         7280.,    1.074E-8
         7300.,    1.213E-8
         7320.,    1.369E-8
         7340.,    1.472E-8
         7360.,    1.615E-8
         7380.,    1.714E-8
         7400.,    1.752E-8
         7420.,    1.809E-8
         7440.,    1.815E-8
         7460.,    1.866E-8
         7480.,    1.947E-8
         7500.,    2.008E-8
         7520.,    2.055E-8
         7540.,    2.067E-8
         7560.,    2.083E-8
         7580.,    2.169E-8
         7600.,    2.047E-8
         7620.,    1.920E-8
         7640.,    1.533E-8
         7660.,    1.109E-8
         7680.,    8.487E-9
         7700.,    9.136E-9
         7720.,    1.041E-8
         7740.,    1.150E-8
         7760.,    1.141E-8
         7780.,    1.171E-8
         7800.,    1.243E-8
         7820.,    1.331E-8
         7840.,    1.360E-8
         7860.,    1.412E-8
         7880.,    1.489E-8
         7900.,    1.484E-8
         7920.,    1.516E-8
         7940.,    1.549E-8
         7960.,    1.615E-8
         7980.,    1.715E-8
         8000.,    1.799E-8
         8020.,    1.884E-8
         8040.,    2.004E-8
         8060.,    2.129E-8
         8080.,    2.231E-8
         8100.,    2.327E-8
         8120.,    2.422E-8
         8140.,    2.496E-8
         8160.,    2.372E-8
         8180.,    2.185E-8
         8200.,    2.123E-8
         8220.,    2.402E-8
         8240.,    2.446E-8
         8260.,    2.524E-8
         8280.,    2.368E-8
         8300.,    2.208E-8
         8320.,    2.201E-8
         8340.,    2.175E-8
         8360.,    2.190E-8
         8380.,    2.206E-8
         8400.,    2.235E-8
         8420.,    2.142E-8
         8440.,    1.908E-8
         8460.,    1.691E-8
         8480.,    1.647E-8
         8500.,    1.764E-8
         8520.,    1.679E-8
         8540.,    1.841E-8
         8560.,    1.891E-8
         8580.,    1.943E-8
         8600.,    2.002E-8
         8620.,    2.048E-8
         8640.,    2.045E-8
         8660.,    2.094E-8
         8680.,    2.009E-8
         8700.,    1.958E-8
         8720.,    1.943E-8
         8740.,    2.101E-8
         8760.,    2.147E-8
         8780.,    2.160E-8
         8800.,    2.285E-8
         8820.,    2.224E-8
         8840.,    2.193E-8
         8860.,    2.169E-8
         8880.,    1.979E-8
         8900.,    2.033E-8
         8920.,    2.135E-8
         8940.,    2.150E-8
         8960.,    2.149E-8
         8980.,    2.255E-8
         9000.,    2.251E-8
         9020.,    2.318E-8
         9040.,    2.389E-8
         9060.,    2.312E-8
         9080.,    2.255E-8
         9100.,    2.316E-8
         9120.,    2.382E-8
         9140.,    2.326E-8
         9160.,    2.375E-8
         9180.,    2.439E-8
         9200.,    2.487E-8
         9220.,    2.478E-8
         9240.,    2.311E-8
         9260.,    2.256E-8
         9280.,    2.409E-8
         9300.,    2.349E-8
         9320.,    2.371E-8
         9340.,    2.515E-8
         9360.,    2.291E-8
         9380.,    2.239E-8
         9400.,    2.322E-8
         9420.,    2.223E-8
         9440.,    2.285E-8
         9460.,    2.250E-8
         9480.,    2.329E-8
         9500.,    2.249E-8
         9520.,    2.328E-8
         9540.,    2.357E-8
         9560.,    2.378E-8
         9580.,    2.332E-8
         9600.,    2.307E-8
         9620.,    2.292E-8
         9640.,    2.323E-8
         9660.,    2.314E-8
         9680.,    2.371E-8
         9700.,    2.269E-8
         9720.,    2.385E-8
         9740.,    2.330E-8
         9760.,    2.316E-8
         9780.,    2.320E-8
         9800.,    2.321E-8
         9820.,    2.378E-8
         9840.,    2.340E-8
         9860.,    2.262E-8
         9880.,    2.236E-8
         9900.,    1.967E-8
         9920.,    1.749E-8
         9940.,    1.951E-8
         9960.,    2.013E-8
         9980.,    2.042E-8
        10000.,    2.077E-8
        10020.,    2.115E-8
        10040.,    2.097E-8
        10060.,    2.165E-8
        10080.,    2.209E-8
        10100.,    2.190E-8
        10120.,    2.183E-8
        10140.,    2.187E-8
        10160.,    2.147E-8
        10180.,    2.125E-8
        10200.,    2.027E-8
        10220.,    2.062E-8
        10240.,    2.044E-8
        10260.,    1.990E-8
        10280.,    1.990E-8
        10300.,    2.037E-8
        10320.,    2.032E-8
        10340.,    2.042E-8
        10360.,    2.101E-8
        10380.,    2.100E-8
        10400.,    2.113E-8
        10420.,    2.148E-8
        10440.,    2.157E-8
        10460.,    2.235E-8
        10480.,    2.071E-8
        10500.,    2.141E-8
        10520.,    2.165E-8
        10540.,    2.141E-8
        10560.,    2.110E-8
        10580.,    2.091E-8
        10600.,    2.038E-8
        10800.,    1.963E-8
        11000.,          0.
        11200.,          0.
        11400.,          0.
        11600.,          0.
        11800.,          0.
        12000.,          0.
        12200.,          0.
        12400.,          0.
        12600.,          0.
        12800.,          0.
        13000.,          0.
        13200.,          0.
        13400.,          0.
        13600.,          0.
        13800.,          0.
        14000.,          0.
        14200.,          0.
        14400.,          0.
        14600.,          0.
        14800.,          0.
        15000.,          0.
        15200.,          0.
        15400.,          0.
        15600.,          0.
        15800.,          0.
        16000.,          0.
        16200.,          0.
        16400.,          0.
        16600.,          0.
        16800.,          0.
        17000.,          0.
        17200.,          0.
        17400.,          0.
        17600.,          0.
        17800.,          0.
        18000.,          0.
        18200.,          0.
        18400.,          0.
        18600.,          0.
        18800.,          0.
        19000.,          0.
        19200.,          0.
        19400.,          0.
        19600.,          0.
        19800.,          0.
        20000.,          0.
        20200.,          0.
        20400.,          0.
        20600.,          0.
        20800.,          0.
        21000.,          0.
        21200.,          0.
        21400.,          0.
        21600.,          0.
        21800.,          0.
        22000.,          0.
        22200.,          0.
        22400.,          0.
        22600.,          0.
        22800.,          0.
        23000.,          0.
        23200.,          0.
        23400.,          0.
        23600.,          0.
        23800.,          0.
        24000.,          0.
        24200.,          0.
        24400.,          0.
        24600.,          0.
        24800.,          0.
        25000.,          0.
        25200.,          0.
        25400.,          0.
        25600.,          0.
